ax,ay,az,gx,gy,gz
-0.006942749023,-0.041610717773,0.173263549805,-0.012023925781,-0.002395629883,0.021072387695
0.004302978516,-0.013565063477,0.231460571289,-0.020187377930,-0.000045776367,0.034896850586
0.042663574219,0.040405273438,0.354995727539,0.007369995117,0.017730712891,0.044967651367
0.034790039063,0.086013793945,0.415466308594,0.026016235352,0.032562255859,0.037231445313
0.032562255859,0.175155639648,0.480117797852,0.040039062500,0.070632934570,0.030288696289
-0.014785766602,0.284927368164,0.497955322266,0.043090820313,0.089752197266,0.019760131836
-0.067031860352,0.283157348633,0.442901611328,0.035186767578,0.105331420898,-0.011489868164
-0.086715698242,0.217834472656,0.332626342773,0.011489868164,0.125488281250,-0.026031494141
-0.036392211914,0.143539428711,0.377273559570,0.004882812500,0.127014160156,-0.034713745117
0.047622680664,-0.022262573242,0.452056884766,-0.001235961914,0.143463134766,-0.040634155273
0.026962280273,-0.060806274414,0.467803955078,-0.003738403320,0.154510498047,-0.036666870117
-0.081832885742,-0.137054443359,0.435424804687,-0.003372192383,0.178741455078,-0.020004272461
-0.135208129883,-0.180404663086,0.386810302734,-0.001159667969,0.192764282227,-0.007171630859
-0.252593994141,-0.202392578125,0.268402099609,0.003082275391,0.213531494141,0.019714355469
-0.304977416992,-0.205245971680,0.184616088867,-0.005371093750,0.214935302734,0.029129028320
-0.300964355469,-0.255569458008,0.001052856445,-0.026916503906,0.199020385742,0.041168212891
-0.294860839844,-0.242279052734,-0.054718017578,-0.035675048828,0.183425903320,0.028305053711
-0.275466918945,-0.203399658203,-0.152725219727,-0.025558471680,0.146347045898,0.026718139648
-0.234252929688,-0.185958862305,-0.166717529297,-0.022384643555,0.123580932617,0.035934448242
-0.178024291992,-0.154357910156,-0.190490722656,-0.015655517578,0.083358764648,0.032608032227
-0.160720825195,-0.129760742188,-0.186706542969,-0.014190673828,0.062133789063,0.028244018555
-0.163909912109,-0.045059204102,-0.188949584961,-0.012451171875,0.030624389648,0.018783569336
-0.151245117188,-0.012619018555,-0.184387207031,-0.009765625000,0.015945434570,0.012374877930
-0.128906250000,0.026016235352,-0.171951293945,-0.010574340820,-0.011230468750,0.000823974609
-0.070907592773,0.019760131836,-0.158203125000,-0.011657714844,-0.025939941406,-0.006622314453
-0.060333251953,0.013565063477,-0.151153564453,-0.009292602539,-0.044387817383,-0.015945434570
-0.037490844727,-0.004257202148,-0.201705932617,-0.007675170898,-0.050125122070,-0.017181396484
-0.027969360352,-0.012771606445,-0.216476440430,-0.008132934570,-0.069549560547,-0.010742187500
-0.016098022461,-0.009109497070,-0.101867675781,-0.011352539063,-0.068038940430,-0.005310058594
0.043670654297,-0.031005859375,-0.164382934570,-0.004928588867,-0.021072387695,0.007186889648
0.022369384766,0.015991210938,-0.138336181641,0.000534057617,-0.003829956055,0.014419555664
0.038940429688,0.012084960938,-0.155593872070,0.002334594727,-0.004241943359,0.012054443359
0.048416137695,-0.001449584961,-0.154983520508,-0.001754760742,-0.016555786133,0.008270263672
0.055358886719,0.005737304688,-0.145339965820,-0.002746582031,-0.021606445313,0.007186889648
0.066482543945,0.003997802734,-0.130462646484,-0.000274658203,-0.026733398438,0.000122070313
0.071212768555,0.002182006836,-0.125076293945,0.000976562500,-0.029571533203,-0.001388549805
0.073089599609,-0.013519287109,-0.112625122070,-0.001937866211,-0.032699584961,-0.000717163086
0.082809448242,-0.026794433594,-0.090316772461,-0.003021240234,-0.035171508789,0.000747680664
0.088668823242,-0.007812500000,-0.070892333984,0.003326416016,-0.033035278320,0.003036499023
0.083740234375,0.003692626953,-0.073577880859,0.006607055664,-0.030761718750,0.002166748047
0.084259033203,0.017623901367,-0.083465576172,0.010055541992,-0.028335571289,0.001602172852
0.087249755859,0.020172119141,-0.086120605469,0.010223388672,-0.028427124023,0.001724243164
0.090728759766,0.018539428711,-0.088272094727,0.009277343750,-0.030456542969,0.000793457031
0.096969604492,0.014785766602,-0.088745117188,0.009002685547,-0.032714843750,0.000137329102
0.095367431641,0.017364501953,-0.084442138672,0.009048461914,-0.035980224609,-0.001129150391
0.094345092773,0.012969970703,-0.066024780273,0.010345458984,-0.042205810547,-0.001831054688
0.098892211914,0.007385253906,-0.048995971680,0.010528564453,-0.044494628906,-0.002838134766
0.099914550781,-0.001098632813,-0.024963378906,0.011901855469,-0.044906616211,-0.006835937500
0.100936889648,-0.005416870117,-0.018753051758,0.012588500977,-0.044601440430,-0.006820678711
0.100555419922,-0.001541137695,-0.021972656250,0.009750366211,-0.041290283203,-0.003707885742
0.096694946289,-0.001296997070,-0.022811889648,0.007705688477,-0.040542602539,-0.002487182617
0.099182128906,-0.005615234375,-0.032913208008,0.005508422852,-0.040710449219,0.000732421875
0.099578857422,-0.006149291992,-0.031265258789,0.002700805664,-0.041854858398,0.003067016602
0.089324951172,0.001434326172,-0.012741088867,-0.003097534180,-0.047012329102,0.007034301758
0.087081909180,0.002532958984,-0.001510620117,-0.003204345703,-0.048828125000,0.007720947266
0.086746215820,0.005538940430,0.024490356445,-0.003921508789,-0.050384521484,0.008270263672
0.092483520508,0.001358032227,0.035430908203,-0.004364013672,-0.050292968750,0.008682250977
0.094543457031,0.001022338867,0.046691894531,-0.004119873047,-0.049835205078,0.009384155273
0.094711303711,-0.011138916016,0.036010742188,-0.002487182617,-0.048416137695,0.008941650391
0.089859008789,-0.009780883789,0.031616210938,-0.002258300781,-0.048171997070,0.008819580078
0.083267211914,-0.012817382813,0.024444580078,-0.000839233398,-0.051086425781,0.009170532227
0.083908081055,-0.003616333008,0.037322998047,-0.003097534180,-0.053131103516,0.010253906250
0.077758789063,0.005798339844,0.066390991211,0.008468627930,-0.053207397461,0.007705688477
0.078582763672,-0.004272460938,0.068588256836,0.016189575195,-0.051300048828,0.004867553711
0.071609497070,-0.003021240234,0.085891723633,0.016281127930,-0.049133300781,0.000656127930
0.064849853516,0.000488281250,0.090072631836,0.017822265625,-0.048034667969,-0.001724243164
0.062210083008,0.016830444336,0.096160888672,0.016296386719,-0.046447753906,-0.002731323242
0.054107666016,0.025115966797,0.098953247070,0.009658813477,-0.046203613281,-0.001007080078
0.046768188477,0.026245117188,0.095565795898,-0.008132934570,-0.046463012695,0.003387451172
0.046325683594,0.007141113281,0.098388671875,-0.015853881836,-0.049362182617,0.006134033203
0.050079345703,-0.004562377930,0.097000122070,-0.020935058594,-0.052062988281,0.008926391602
0.049331665039,-0.018981933594,0.101654052734,-0.024826049805,-0.054763793945,0.015869140625
0.048446655273,-0.014053344727,0.115432739258,-0.023284912109,-0.053955078125,0.019485473633
0.049530029297,-0.005844116211,0.147384643555,-0.006301879883,-0.046157836914,0.019119262695
0.048583984375,0.001129150391,0.151046752930,0.002426147461,-0.040969848633,0.015930175781
0.030502319336,0.017150878906,0.130798339844,0.015625000000,-0.032882690430,0.008010864258
0.024398803711,0.013610839844,0.112579345703,0.022094726563,-0.030197143555,0.002182006836
0.019668579102,-0.010711669922,0.092315673828,0.026550292969,-0.030975341797,-0.006561279297
0.010818481445,-0.028213500977,0.097778320313,0.021286010742,-0.033462524414,-0.008972167969
-0.017883300781,0.018890380859,0.013809204102,-0.004486083984,-0.073013305664,0.025665283203
-0.062973022461,-0.006271362305,0.240280151367,0.011230468750,-0.112991333008,0.034927368164
-0.036117553711,0.224487304688,0.499938964844,-0.082534790039,-0.099136352539,0.046035766602
0.038803100586,-0.025650024414,0.147949218750,0.006973266602,0.024520874023,-0.010009765625
0.049102783203,-0.052688598633,0.067321777344,-0.017669677734,0.039443969727,-0.024948120117
0.001998901367,0.030807495117,0.120605468750,0.027587890625,0.014297485352,-0.007095336914
0.001296997070,0.015594482422,0.085632324219,0.045898437500,0.023178100586,-0.008300781250
-0.011032104492,0.048294067383,0.044387817383,0.025375366211,0.017578125000,-0.001525878906
0.001098632813,0.031311035156,0.065658569336,0.014923095703,0.005050659180,-0.001510620117
0.017730712891,-0.009933471680,0.113113403320,-0.000518798828,-0.003875732422,-0.006027221680
0.024215698242,-0.005920410156,0.134994506836,-0.004043579102,-0.004180908203,-0.003112792969
0.024902343750,0.005783081055,0.146102905273,0.000152587891,-0.000503540039,0.000579833984
0.021804809570,0.005401611328,0.131698608398,0.005050659180,0.001998901367,0.000457763672
0.022277832031,0.007125854492,0.120162963867,0.004745483398,0.003936767578,0.000366210937
0.023834228516,0.002990722656,0.115951538086,0.004531860352,0.003997802734,0.000778198242
0.022094726563,0.005432128906,0.118316650391,0.003280639648,0.003768920898,0.001113891602
0.023437500000,0.006423950195,0.117111206055,0.000183105469,0.003280639648,0.001037597656
0.023849487305,0.007354736328,0.116104125977,-0.000885009766,0.002883911133,0.001068115234
0.024139404297,0.006790161133,0.115264892578,-0.001388549805,0.001724243164,0.001037597656
0.023834228516,0.007919311523,0.115432739258,-0.001724243164,0.001220703125,0.001129150391
0.024337768555,0.007675170898,0.115997314453,-0.001495361328,0.000350952148,0.000808715820
0.024047851563,0.007629394531,0.117233276367,-0.001663208008,-0.000030517578,0.000762939453
0.024185180664,0.007965087891,0.119979858398,-0.002273559570,-0.000396728516,0.000732421875
0.023803710938,0.007263183594,0.120422363281,-0.002151489258,-0.000473022461,0.000701904297
0.023712158203,0.007766723633,0.121078491211,-0.002258300781,-0.000473022461,0.000885009766

0.024337768555,0.013702392578,0.174942016602,0.002807617188,0.004119873047,-0.000823974609
0.029006958008,0.015762329102,0.187683105469,0.003555297852,0.007156372070,-0.001296997070
0.040588378906,0.032852172852,0.301681518555,-0.003890991211,0.016189575195,-0.003845214844
0.050659179688,0.033218383789,0.395523071289,-0.004989624023,0.021591186523,-0.008392333984
0.041534423828,0.028366088867,0.499938964844,-0.004669189453,0.050186157227,-0.008728027344
0.015197753906,0.046096801758,0.482223510742,-0.005081176758,0.073730468750,-0.002548217773
-0.018218994141,0.084365844727,0.448608398437,-0.003402709961,0.105621337891,-0.001647949219
-0.060745239258,0.108810424805,0.358993530273,-0.001296997070,0.116180419922,-0.007186889648
-0.067825317383,0.087005615234,0.325119018555,-0.011871337891,0.121322631836,-0.012069702148
-0.068786621094,-0.005294799805,0.274993896484,-0.026672363281,0.123870849609,-0.021270751953
-0.067306518555,-0.050384521484,0.245605468750,-0.024276733398,0.124908447266,-0.024337768555
-0.077758789063,-0.071838378906,0.192428588867,-0.012817382813,0.130950927734,-0.018432617188
-0.094894409180,-0.069198608398,0.163482666016,-0.006744384766,0.133697509766,-0.012847900391
-0.103591918945,-0.065475463867,0.117462158203,-0.013504028320,0.133361816406,-0.001510620117
-0.098052978516,-0.075576782227,0.091217041016,-0.014984130859,0.130447387695,0.000427246094
-0.111846923828,-0.063827514648,0.045501708984,-0.011672973633,0.124603271484,0.003936767578
-0.115036010742,-0.055389404297,-0.000579833984,-0.004730224609,0.124145507813,0.005706787109
-0.115753173828,-0.043075561523,-0.029815673828,-0.007797241211,0.115234375000,0.006591796875
-0.111083984375,-0.051437377930,-0.038391113281,-0.007904052734,0.112274169922,0.004287719727
-0.096878051758,-0.052291870117,-0.081604003906,-0.002136230469,0.106369018555,0.004028320313
-0.095275878906,-0.042785644531,-0.118331909180,-0.007644653320,0.101974487305,0.005645751953
-0.089263916016,-0.015182495117,-0.173828125000,-0.009780883789,0.089019775391,0.007980346680
-0.083999633789,-0.022979736328,-0.193191528320,-0.001358032227,0.081558227539,0.007064819336
-0.071411132813,-0.020278930664,-0.219665527344,0.006301879883,0.066024780273,0.009658813477
-0.067016601563,-0.006057739258,-0.235839843750,0.005859375000,0.059555053711,0.013153076172
-0.070968627930,0.036422729492,-0.259536743164,0.005508422852,0.045852661133,0.018814086914
-0.071182250977,0.050338745117,-0.269714355469,0.006652832031,0.038085937500,0.018844604492
-0.060348510742,0.059707641602,-0.278030395508,0.005706787109,0.021499633789,0.016067504883
-0.051666259766,0.075820922852,-0.288253784180,-0.004837036133,0.011962890625,0.014282226563
-0.041595458984,0.075592041016,-0.270858764648,-0.014770507813,-0.000747680664,0.009994506836
-0.022506713867,0.063858032227,-0.233764648438,-0.016754150391,-0.008499145508,0.006790161133
-0.012817382813,0.057785034180,-0.215866088867,-0.013626098633,-0.012542724609,0.003417968750
0.011489868164,0.038818359375,-0.182373046875,-0.007629394531,-0.018371582031,-0.002685546875
0.025253295898,0.030258178711,-0.159805297852,-0.004318237305,-0.020599365234,-0.005081176758
0.053466796875,0.008529663086,-0.110260009766,-0.000320434570,-0.021484375000,-0.006805419922
0.061782836914,0.003479003906,-0.101669311523,0.000686645508,-0.020355224609,-0.005844116211
0.075714111328,0.004867553711,-0.102416992188,-0.000457763672,-0.019973754883,-0.002517700195
0.080352783203,0.008209228516,-0.102767944336,0.000106811523,-0.020767211914,-0.001449584961
0.085083007813,0.011077880859,-0.090438842773,0.002883911133,-0.023300170898,-0.001052856445
0.082107543945,0.015853881836,-0.083587646484,0.004272460938,-0.024154663086,-0.001190185547
0.069259643555,0.029083251953,-0.078674316406,0.004379272461,-0.024230957031,-0.001861572266
0.063034057617,0.034454345703,-0.083557128906,0.004165649414,-0.024108886719,-0.003402709961
0.052490234375,0.041137695313,-0.099517822266,0.002929687500,-0.023056030273,-0.007568359375
0.048263549805,0.041671752930,-0.109817504883,0.003463745117,-0.022460937500,-0.008941650391
0.040985107422,0.038635253906,-0.131637573242,0.005691528320,-0.022827148438,-0.011962890625
0.041961669922,0.033248901367,-0.141677856445,0.006408691406,-0.024673461914,-0.013931274414
0.045059204102,0.022735595703,-0.144592285156,0.006423950195,-0.031646728516,-0.016693115234
0.045516967773,0.013595581055,-0.140106201172,0.006759643555,-0.035842895508,-0.017791748047
0.047027587891,0.004196166992,-0.114196777344,0.007034301758,-0.043350219727,-0.018402099609
0.051101684570,-0.008499145508,-0.101577758789,0.008682250977,-0.045959472656,-0.018264770508
0.054412841797,-0.013839721680,-0.092056274414,0.015014648438,-0.049392700195,-0.017669677734
0.061691284180,-0.019653320313,-0.072952270508,0.012847900391,-0.050445556641,-0.017196655273
0.063064575195,-0.020126342773,-0.066207885742,0.013946533203,-0.051544189453,-0.016693115234
0.062896728516,-0.018829345703,-0.055679321289,0.014450073242,-0.053512573242,-0.016464233398
0.064559936523,-0.021636962891,-0.053329467773,0.014801025391,-0.054534912109,-0.016311645508
0.065292358398,-0.028854370117,-0.041152954102,0.015029907227,-0.058029174805,-0.015426635742
0.062576293945,-0.028121948242,-0.033523559570,0.014862060547,-0.059860229492,-0.014526367188
0.056854248047,-0.026748657227,-0.023193359375,0.015731811523,-0.062896728516,-0.013122558594
0.054763793945,-0.027404785156,-0.024047851563,0.014465332031,-0.064315795898,-0.011703491211
0.054031372070,-0.040435791016,0.003067016602,0.008300781250,-0.070465087891,-0.009429931641
0.058303833008,-0.051437377930,0.029342651367,0.006774902344,-0.072906494141,-0.007843017578
0.062591552734,-0.051025390625,0.079254150391,0.008926391602,-0.073257446289,-0.003768920898
0.064422607422,-0.043029785156,0.094345092773,0.011306762695,-0.071563720703,-0.002593994141
0.063339233398,-0.024276733398,0.095382690430,0.012435913086,-0.065872192383,-0.000762939453
0.060195922852,-0.016632080078,0.088500976563,0.010009765625,-0.063568115234,0.000076293945
0.049774169922,-0.000259399414,0.072036743164,0.005661010742,-0.062866210938,0.000991821289
0.047042846680,-0.001281738281,0.057998657227,0.003524780273,-0.064315795898,0.001495361328
0.045364379883,-0.021240234375,0.090011596680,-0.005325317383,-0.070892333984,0.003890991211
0.054595947266,-0.029647827148,0.132568359375,-0.004806518555,-0.073471069336,0.005096435547
0.057937622070,-0.025695800781,0.175781250000,0.000183105469,-0.069427490234,0.005752563477
0.063476562500,0.001693725586,0.230499267578,0.003524780273,-0.060760498047,0.005157470703
0.065734863281,0.014709472656,0.227645874023,0.007354736328,-0.049545288086,0.003936767578
0.063491821289,0.025802612305,0.171646118164,0.009826660156,-0.030532836914,0.001388549805
0.059829711914,0.023788452148,0.141296386719,0.007553100586,-0.025909423828,-0.000244140625
0.051254272461,0.005996704102,0.095657348633,0.006668090820,-0.024658203125,-0.003967285156
0.049865722656,-0.002151489258,0.082901000977,0.004287719727,-0.027053833008,-0.004714965820
0.041702270508,-0.009887695313,0.085769653320,-0.000457763672,-0.033905029297,-0.003585815430
0.042510986328,-0.014266967773,0.095626831055,0.000350952148,-0.036315917969,-0.003128051758
0.043472290039,-0.026870727539,0.126556396484,0.003250122070,-0.038848876953,-0.003311157227
0.044036865234,-0.030120849609,0.143341064453,0.002227783203,-0.038619995117,-0.003234863281
0.048934936523,-0.041671752930,0.186920166016,0.000717163086,-0.038604736328,-0.003601074219
0.050018310547,-0.036392211914,0.204666137695,0.001876831055,-0.036468505859,-0.003234863281
0.050552368164,-0.034149169922,0.205795288086,0.009292602539,-0.025848388672,-0.001419067383
0.044708251953,-0.025192260742,0.178283691406,0.008483886719,-0.020172119141,-0.000091552734
0.040863037109,-0.021560668945,0.162185668945,0.008087158203,-0.015884399414,0.001022338867
0.032867431641,-0.017288208008,0.135253906250,0.009216308594,-0.010025024414,0.000930786133
0.031661987305,-0.016113281250,0.124023437500,0.010040283203,-0.008346557617,0.000228881836
0.026519775391,-0.012466430664,0.100280761719,0.010467529297,-0.007171630859,-0.000747680664
0.024749755859,-0.012725830078,0.087661743164,0.010681152344,-0.008743286133,-0.000885009766
0.017898559570,-0.008834838867,0.093261718750,0.010757446289,-0.018203735352,0.000503540039
0.024505615234,-0.013168334961,0.116210937500,0.005798339844,-0.022781372070,-0.001022338867
0.037780761719,-0.025817871094,0.291687011719,-0.024948120117,-0.056060791016,0.003952026367
0.025543212891,0.020584106445,0.320846557617,-0.051635742188,-0.051071166992,0.009552001953
0.010833740234,-0.010223388672,0.172515869141,-0.004470825195,0.000869750977,-0.003036499023
0.018707275391,-0.013961791992,0.136383056641,0.011123657227,0.007492065430,-0.003677368164
0.015014648438,-0.009994506836,0.113616943359,0.014602661133,0.010147094727,-0.003952026367
0.011260986328,-0.004455566406,0.095748901367,0.011795043945,0.008773803711,-0.003753662109
0.011245727539,-0.007965087891,0.092742919922,0.009353637695,0.006729125977,-0.004119873047
0.018356323242,-0.016525268555,0.113723754883,0.003601074219,0.000625610352,-0.004043579102
0.020004272461,-0.019790649414,0.123779296875,0.001541137695,-0.000808715820,-0.003646850586
0.022552490234,-0.023788452148,0.128158569336,0.000900268555,-0.000061035156,-0.002746582031
0.022750854492,-0.025863647461,0.124130249023,0.002243041992,0.000976562500,-0.002197265625
0.023086547852,-0.026885986328,0.116531372070,0.002929687500,0.001953125000,-0.001037597656
0.022354125977,-0.023971557617,0.112915039063,0.002410888672,0.001708984375,-0.000442504883

0.022216796875,-0.020019531250,0.164245605469,0.000671386719,0.000457763672,0.000427246094
0.031097412109,-0.028518676758,0.206039428711,0.002059936523,0.004058837891,-0.000045776367
0.065414428711,-0.047515869141,0.429199218750,-0.009536743164,0.017578125000,0.003173828125
0.075988769531,-0.063049316406,0.499938964844,-0.018371582031,0.031433105469,0.005554199219
0.069732666016,-0.055877685547,0.499938964844,-0.033294677734,0.082885742188,0.019729614258
-0.047744750977,0.029464721680,0.499938964844,-0.016799926758,0.110855102539,0.021469116211
-0.087387084961,0.077835083008,0.493072509766,0.016296386719,0.146530151367,0.012756347656
-0.158096313477,0.164489746094,0.320465087891,0.017044067383,0.154342651367,0.002304077148
-0.151306152344,0.133560180664,0.246047973633,0.003295898438,0.154251098633,-0.009185791016
-0.097671508789,-0.044815063477,0.223388671875,-0.026718139648,0.136779785156,-0.027832031250
-0.085723876953,-0.114486694336,0.224517822266,-0.021759033203,0.132247924805,-0.027770996094
-0.110015869141,-0.117263793945,0.165740966797,-0.006790161133,0.138946533203,-0.012252807617
-0.127609252930,-0.095764160156,0.126953125000,-0.004013061523,0.141448974609,-0.004241943359
-0.136383056641,-0.087738037109,0.069976806641,-0.016540527344,0.137817382813,0.009094238281
-0.128402709961,-0.107192993164,0.048446655273,-0.023529052734,0.133346557617,0.013671875000
-0.107192993164,-0.103652954102,0.025573730469,-0.024597167969,0.123275756836,0.020294189453
-0.112045288086,-0.102218627930,-0.000518798828,-0.018737792969,0.124862670898,0.016677856445
-0.104782104492,-0.101776123047,-0.047775268555,-0.006988525391,0.116287231445,0.019393920898
-0.098205566406,-0.113357543945,-0.064437866211,-0.009521484375,0.108306884766,0.022232055664
-0.085906982422,-0.098114013672,-0.112854003906,-0.011352539063,0.093917846680,0.030273437500
-0.085342407227,-0.077178955078,-0.151397705078,-0.009368896484,0.087417602539,0.032150268555
-0.081298828125,-0.041717529297,-0.167465209961,-0.017333984375,0.071365356445,0.031433105469
-0.082763671875,-0.033111572266,-0.162536621094,-0.014144897461,0.064620971680,0.029739379883
-0.094741821289,-0.009643554688,-0.190521240234,-0.003646850586,0.056854248047,0.025802612305
-0.100402832031,0.006530761719,-0.221786499023,-0.005187988281,0.053543090820,0.024887084961
-0.100799560547,0.019149780273,-0.251358032227,-0.010437011719,0.043273925781,0.023132324219
-0.105957031250,0.049316406250,-0.276458740234,-0.008102416992,0.037521362305,0.020721435547
-0.106506347656,0.058853149414,-0.290267944336,-0.001495361328,0.031967163086,0.013473510742
-0.087951660156,0.077011108398,-0.302917480469,0.009567260742,0.019119262695,0.009841918945
-0.074401855469,0.077850341797,-0.290206909180,0.013320922852,0.010589599609,0.005386352539
-0.049163818359,0.070800781250,-0.248321533203,0.010314941406,-0.005187988281,-0.000747680664
-0.035339355469,0.058242797852,-0.226974487305,0.002593994141,-0.011291503906,-0.002182006836
-0.007644653320,0.041671752930,-0.181854248047,-0.005264282227,-0.022140502930,-0.003890991211
0.002349853516,0.036941528320,-0.173843383789,-0.001693725586,-0.024658203125,-0.005447387695
0.016128540039,0.036132812500,-0.161010742188,0.001693725586,-0.028793334961,-0.007461547852
0.020187377930,0.037094116211,-0.155090332031,0.002319335938,-0.030807495117,-0.008895874023
0.021850585938,0.035842895508,-0.140411376953,0.003036499023,-0.033645629883,-0.011779785156
0.019378662109,0.038574218750,-0.135787963867,0.002914428711,-0.034194946289,-0.013198852539
0.016464233398,0.035629272461,-0.133300781250,0.000640869141,-0.034347534180,-0.016220092773
0.018997192383,0.033172607422,-0.130935668945,-0.000839233398,-0.034469604492,-0.017868041992
0.023056030273,0.020370483398,-0.138412475586,-0.002090454102,-0.035247802734,-0.020172119141
0.032821655273,0.010375976563,-0.145294189453,-0.002029418945,-0.036987304688,-0.021011352539
0.038558959961,0.000213623047,-0.153198242188,-0.004409790039,-0.043853759766,-0.020965576172
0.038619995117,-0.014984130859,-0.141342163086,-0.008544921875,-0.048355102539,-0.020263671875
0.038696289063,-0.022201538086,-0.126388549805,-0.009597778320,-0.056137084961,-0.018249511719
0.045516967773,-0.038330078125,-0.089172363281,-0.008239746094,-0.058349609375,-0.017013549805
0.050445556641,-0.043014526367,-0.072143554688,-0.000411987305,-0.059783935547,-0.014907836914
0.059738159180,-0.046630859375,-0.051055908203,0.004623413086,-0.059616088867,-0.014343261719
0.064331054688,-0.049972534180,-0.045150756836,0.008316040039,-0.058883666992,-0.013275146484
0.065994262695,-0.046386718750,-0.038879394531,0.013153076172,-0.058700561523,-0.011840820313
0.064437866211,-0.044158935547,-0.041656494141,0.015136718750,-0.059280395508,-0.010864257813
0.059600830078,-0.038269042969,-0.034973144531,0.017639160156,-0.064010620117,-0.008987426758
0.057113647461,-0.037704467773,-0.024169921875,0.016418457031,-0.066085815430,-0.007614135742
0.059265136719,-0.046722412109,0.011383056641,0.015457153320,-0.068527221680,-0.005722045898
0.064590454102,-0.055923461914,0.031631469727,0.015625000000,-0.068145751953,-0.004653930664
0.069259643555,-0.048294067383,0.051422119141,0.015243530273,-0.065063476563,-0.001556396484
0.072845458984,-0.039413452148,0.046173095703,0.013732910156,-0.063323974609,-0.000427246094
0.070022583008,-0.026443481445,0.037200927734,0.005706787109,-0.062713623047,0.001312255859
0.069610595703,-0.024642944336,0.035339355469,0.004669189453,-0.063018798828,0.001937866211
0.062301635742,-0.020523071289,0.033233642578,0.008941650391,-0.065795898438,0.001892089844
0.056808471680,-0.016464233398,0.036575317383,0.006347656250,-0.067337036133,0.002868652344
0.059982299805,-0.027374267578,0.052322387695,0.000015258789,-0.072326660156,0.005142211914
0.071456909180,-0.040390014648,0.126495361328,-0.000396728516,-0.073318481445,0.005081176758
0.078063964844,-0.035507202148,0.154052734375,-0.000198364258,-0.065277099609,0.005279541016
0.083526611328,-0.019134521484,0.171234130859,-0.001205444336,-0.058334350586,0.005920410156
0.082489013672,-0.012390136719,0.162216186523,-0.001174926758,-0.044448852539,0.006149291992
0.074844360352,-0.006088256836,0.119949340820,0.000274658203,-0.039688110352,0.005767822266
0.069107055664,-0.003433227539,0.098846435547,0.000518798828,-0.037612915039,0.006134033203
0.056442260742,0.000961303711,0.073348999023,-0.000671386719,-0.038772583008,0.006790161133
0.051208496094,0.002044677734,0.062850952148,-0.001708984375,-0.040542602539,0.007843017578
0.035751342773,0.005645751953,0.059555053711,-0.002365112305,-0.045379638672,0.009704589844
0.030914306641,0.004257202148,0.068557739258,-0.000259399414,-0.047790527344,0.009948730469
0.026397705078,0.010406494141,0.129730224609,0.002899169922,-0.051406860352,0.008651733398
0.029205322266,0.013290405273,0.160903930664,0.006881713867,-0.051025390625,0.006469726563
0.035354614258,0.017913818359,0.207366943359,0.011779785156,-0.044860839844,0.000457763672
0.040054321289,0.014526367188,0.218719482422,0.010543823242,-0.039932250977,-0.002380371094
0.041854858398,0.008026123047,0.219421386719,0.007919311523,-0.027236938477,-0.004821777344
0.042449951172,-0.007400512695,0.184097290039,0.008712768555,-0.021347045898,-0.004272460938
0.042083740234,-0.009963989258,0.159271240234,0.009643554688,-0.016937255859,-0.002929687500
0.033279418945,-0.003326416016,0.121627807617,0.012832641602,-0.012435913086,-0.001220703125
0.031204223633,-0.003112792969,0.107330322266,0.013702392578,-0.011718750000,-0.001785278320
0.027862548828,-0.002731323242,0.094497680664,0.014175415039,-0.013992309570,-0.002120971680
0.024353027344,-0.003387451172,0.094558715820,0.015090942383,-0.015792846680,-0.002059936523
0.019195556641,-0.008453369141,0.110473632813,0.015518188477,-0.019897460938,-0.004257202148
0.027587890625,-0.011871337891,0.132873535156,0.012603759766,-0.022705078125,-0.006683349609
0.047073364258,-0.026306152344,0.156341552734,0.005981445313,-0.024322509766,-0.007904052734
0.045410156250,-0.041595458984,0.156127929688,0.003234863281,-0.026931762695,-0.005996704102
0.034790039063,-0.031509399414,0.241439819336,-0.007934570313,-0.042816162109,-0.002746582031
0.033935546875,-0.028823852539,0.252212524414,-0.007492065430,-0.039825439453,0.001159667969
0.022720336914,-0.025207519531,0.193847656250,0.004882812500,-0.010147094727,0.001907348633
0.015960693359,-0.019638061523,0.154754638672,0.010848999023,0.000213623047,0.000350952148
0.017959594727,-0.013397216797,0.136077880859,0.011367797852,0.006851196289,0.000854492188
0.010116577148,-0.009185791016,0.110061645508,0.009460449219,0.006103515625,-0.000289916992
0.010101318359,-0.011032104492,0.104446411133,0.007995605469,0.004241943359,-0.001129150391
0.013763427734,-0.018035888672,0.109115600586,0.003601074219,-0.000915527344,-0.001922607422
0.016693115234,-0.023117065430,0.116073608398,0.002044677734,-0.002380371094,-0.002258300781
0.019897460938,-0.033950805664,0.125244140625,0.002380371094,-0.002929687500,-0.001892089844
0.021697998047,-0.038589477539,0.130172729492,0.001770019531,-0.002471923828,-0.001388549805
0.021072387695,-0.034408569336,0.131042480469,-0.000778198242,-0.000381469727,0.000518798828
0.020111083984,-0.030364990234,0.126739501953,-0.000869750977,0.000671386719,0.001388549805
0.019577026367,-0.027130126953,0.118713378906,-0.001708984375,0.001937866211,0.002212524414
0.021591186523,-0.022720336914,0.115997314453,-0.002197265625,0.002380371094,0.002777099609
0.016952514648,-0.021194458008,0.112686157227,-0.001190185547,0.002349853516,0.002700805664
0.018692016602,-0.018936157227,0.108001708984,-0.000228881836,0.001190185547,0.002487182617

0.018859863281,-0.012649536133,0.170989990234,-0.005645751953,0.006759643555,-0.001541137695
0.026306152344,-0.003128051758,0.223632812500,-0.009475708008,0.009582519531,-0.002426147461
0.057022094727,-0.030456542969,0.378051757813,-0.024108886719,0.023559570313,-0.002502441406
0.065063476563,-0.061859130859,0.482452392578,-0.037429809570,0.033889770508,-0.000732421875
0.019699096680,-0.038848876953,0.499938964844,-0.037063598633,0.076385498047,0.008972167969
-0.013687133789,-0.008941650391,0.491455078125,-0.017059326172,0.099548339844,0.011734008789
-0.046600341797,0.034530639648,0.352249145508,0.007537841797,0.129577636719,0.010955810547
-0.093933105469,0.087051391602,0.298171997070,0.004486083984,0.135437011719,0.006851196289
-0.101257324219,0.092010498047,0.250244140625,-0.003997802734,0.137069702148,-0.005081176758
-0.091735839844,0.051498413086,0.213912963867,-0.011459350586,0.131637573242,-0.012588500977
-0.089462280273,0.008407592773,0.195343017578,-0.009292602539,0.130828857422,-0.016860961914
-0.093963623047,-0.040237426758,0.125244140625,-0.014480590820,0.131362915039,-0.014495849609
-0.091964721680,-0.050781250000,0.114349365234,-0.014511108398,0.128845214844,-0.012466430664
-0.093841552734,-0.067718505859,0.093154907227,-0.007736206055,0.126800537109,-0.009735107422
-0.095123291016,-0.062942504883,0.065216064453,-0.004577636719,0.125823974609,-0.007125854492
-0.097640991211,-0.069625854492,0.007019042969,0.005706787109,0.121109008789,-0.000854492188
-0.093704223633,-0.067245483398,-0.020172119141,0.006103515625,0.117202758789,0.002029418945
-0.066802978516,-0.078109741211,-0.037078857422,0.003417968750,0.105712890625,0.005645751953
-0.061294555664,-0.076980590820,-0.048782348633,0.006271362305,0.099929809570,0.007675170898
-0.054504394531,-0.051208496094,-0.109008789063,0.011749267578,0.088943481445,0.015701293945
-0.045501708984,-0.046615600586,-0.119934082031,0.009597778320,0.081222534180,0.018081665039
-0.036010742188,-0.045455932617,-0.116912841797,0.004562377930,0.069458007813,0.021697998047
-0.025619506836,-0.032394409180,-0.129989624023,0.000976562500,0.065353393555,0.025085449219
-0.026199340820,-0.017669677734,-0.140563964844,-0.001983642578,0.061325073242,0.029022216797
-0.029006958008,0.007751464844,-0.160720825195,-0.002731323242,0.053649902344,0.027633666992
-0.027847290039,0.013702392578,-0.158355712891,-0.001434326172,0.049453735352,0.024505615234
-0.028381347656,0.018646240234,-0.176223754883,0.001296997070,0.043640136719,0.019714355469
-0.029754638672,0.027206420898,-0.185607910156,-0.000549316406,0.040054321289,0.019042968750
-0.036727905273,0.047012329102,-0.201477050781,-0.002792358398,0.034271240234,0.015258789063
-0.035446166992,0.052734375000,-0.208068847656,-0.000640869141,0.031616210938,0.012252807617
-0.026550292969,0.046203613281,-0.187957763672,0.004989624023,0.024185180664,0.006484985352
-0.023361206055,0.047821044922,-0.191604614258,0.009780883789,0.021804809570,0.004791259766
-0.015167236328,0.062606811523,-0.214126586914,0.008270263672,0.015579223633,0.002502441406
-0.011795043945,0.064575195313,-0.205535888672,0.001419067383,0.010955810547,0.001266479492
-0.006744384766,0.059631347656,-0.192626953125,-0.000030517578,0.003524780273,-0.002929687500
0.003219604492,0.049438476563,-0.175109863281,0.000350952148,0.001663208008,-0.004364013672
0.008758544922,0.042602539063,-0.168762207031,-0.000778198242,-0.001464843750,-0.006500244141
0.019973754883,0.029525756836,-0.152313232422,-0.003936767578,-0.001953125000,-0.006866455078
0.022003173828,0.033142089844,-0.154373168945,-0.003265380859,-0.002639770508,-0.007400512695
0.027145385742,0.031051635742,-0.162261962891,-0.001373291016,-0.003433227539,-0.008071899414
0.031280517578,0.024826049805,-0.159744262695,-0.002075195313,-0.004821777344,-0.008712768555
0.042449951172,0.013290405273,-0.142135620117,-0.005035400391,-0.007141113281,-0.008575439453
0.046966552734,0.010116577148,-0.139312744141,-0.004501342773,-0.007339477539,-0.008224487305
0.046966552734,0.012237548828,-0.152908325195,-0.001617431641,-0.007781982422,-0.007781982422
0.044815063477,0.014190673828,-0.157196044922,-0.001266479492,-0.009399414063,-0.007812500000
0.040176391602,0.016006469727,-0.158767700195,-0.000808715820,-0.013702392578,-0.008590698242
0.036346435547,0.019302368164,-0.156768798828,-0.000411987305,-0.016387939453,-0.008712768555
0.032775878906,0.018981933594,-0.155868530273,-0.001480102539,-0.021774291992,-0.009826660156
0.034744262695,0.014862060547,-0.147033691406,-0.003479003906,-0.024856567383,-0.010559082031
0.042282104492,0.007858276367,-0.121536254883,-0.005325317383,-0.029296875000,-0.011978149414
0.048202514648,0.002441406250,-0.113403320313,-0.005111694336,-0.030120849609,-0.012496948242
0.055221557617,-0.000762939453,-0.108078002930,-0.007354736328,-0.030563354492,-0.010910034180
0.051895141602,0.002792358398,-0.110656738281,-0.008041381836,-0.030914306641,-0.009704589844
0.051528930664,0.007904052734,-0.113052368164,-0.007843017578,-0.033325195313,-0.009826660156
0.050964355469,0.007659912109,-0.112533569336,-0.007629394531,-0.034790039063,-0.010147094727
0.050918579102,0.007629394531,-0.115386962891,-0.008071899414,-0.038589477539,-0.011032104492
0.057876586914,-0.003494262695,-0.113204956055,-0.010421752930,-0.041275024414,-0.011291503906
0.063781738281,-0.011611938477,-0.103698730469,-0.012451171875,-0.048248291016,-0.011016845703
0.074356079102,-0.022750854492,-0.083282470703,-0.011917114258,-0.048904418945,-0.010604858398
0.078872680664,-0.025314331055,-0.073089599609,-0.011611938477,-0.051391601563,-0.008880615234
0.082031250000,-0.025482177734,-0.053741455078,-0.013076782227,-0.051849365234,-0.007553100586
0.080596923828,-0.019210815430,-0.048034667969,-0.012191772461,-0.051651000977,-0.005096435547
0.077117919922,-0.011718750000,-0.047485351563,-0.008438110352,-0.050949096680,-0.004577636719
0.075668334961,-0.010940551758,-0.047637939453,-0.008041381836,-0.051116943359,-0.004348754883
0.077102661133,-0.014755249023,-0.043746948242,-0.006423950195,-0.051712036133,-0.004379272461
0.077560424805,-0.018142700195,-0.037887573242,-0.004669189453,-0.052154541016,-0.004440307617
0.082946777344,-0.028045654297,-0.020782470703,-0.000854492188,-0.051696777344,-0.004867553711
0.087707519531,-0.035171508789,-0.012161254883,0.000839233398,-0.050842285156,-0.004745483398
0.098678588867,-0.047088623047,0.000152587891,0.003082275391,-0.049514770508,-0.003402709961
0.102859497070,-0.050552368164,0.008529663086,0.002609252930,-0.049118041992,-0.002044677734
0.104934692383,-0.047286987305,0.024368286133,0.002761840820,-0.048049926758,0.001007080078
0.104248046875,-0.044479370117,0.027221679688,0.003234863281,-0.046844482422,0.002670288086
0.099990844727,-0.034164428711,0.023864746094,0.002487182617,-0.045272827148,0.005920410156
0.097564697266,-0.028778076172,0.020858764648,0.001861572266,-0.045089721680,0.007156372070
0.097534179688,-0.026885986328,0.022903442383,-0.000610351563,-0.046234130859,0.009399414063
0.090301513672,-0.017211914063,0.031585693359,-0.000640869141,-0.047592163086,0.010375976563
0.092803955078,-0.017379760742,0.041046142578,0.000778198242,-0.046844482422,0.011138916016
0.089111328125,-0.013183593750,0.056137084961,0.003387451172,-0.046234130859,0.010986328125
0.087585449219,-0.010482788086,0.061141967773,0.004486083984,-0.045593261719,0.010772705078
0.092391967773,-0.017044067383,0.067382812500,0.004898071289,-0.043914794922,0.009887695313
0.093170166016,-0.018325805664,0.073883056641,0.003646850586,-0.043228149414,0.009704589844
0.088546752930,-0.009185791016,0.082778930664,0.002716064453,-0.041275024414,0.009628295898
0.086868286133,-0.006729125977,0.079254150391,0.003295898438,-0.039321899414,0.009231567383
0.081542968750,-0.004150390625,0.068344116211,0.003707885742,-0.036514282227,0.008453369141
0.077575683594,-0.001846313477,0.066406250000,0.004196166992,-0.036117553711,0.008056640625
0.073394775391,0.000228881836,0.061203002930,0.007781982422,-0.035964965820,0.006866455078
0.065872192383,-0.000640869141,0.063339233398,0.009170532227,-0.036544799805,0.006103515625
0.064346313477,-0.003280639648,0.070739746094,0.009185791016,-0.037597656250,0.004882812500
0.062896728516,-0.010604858398,0.087173461914,0.007614135742,-0.039199829102,0.004760742188
0.063507080078,-0.014358520508,0.103042602539,0.005538940430,-0.040008544922,0.005142211914
0.065490722656,-0.011428833008,0.131744384766,0.001342773438,-0.040283203125,0.006591796875
0.067489624023,-0.010543823242,0.140487670898,-0.001358032227,-0.039505004883,0.007766723633
0.068832397461,0.000091552734,0.151870727539,-0.005508422852,-0.036026000977,0.010406494141
0.065338134766,0.007507324219,0.145477294922,-0.003356933594,-0.033432006836,0.011154174805
0.060791015625,0.009140014648,0.123840332031,-0.000106811523,-0.028167724609,0.009109497070
0.054962158203,0.009719848633,0.120910644531,0.001571655273,-0.026931762695,0.007919311523
0.049957275391,0.004669189453,0.108032226563,0.010452270508,-0.024047851563,0.006011962891
0.042053222656,0.003677368164,0.108337402344,0.011611938477,-0.023361206055,0.005325317383
0.042663574219,0.001617431641,0.114059448242,0.010559082031,-0.022918701172,0.003372192383
0.046661376953,-0.002044677734,0.133621215820,0.005432128906,-0.022933959961,0.002853393555
0.046417236328,0.002441406250,0.144287109375,0.001312255859,-0.023147583008,0.002639770508
0.049911499023,0.015716552734,0.155929565430,-0.003692626953,-0.021911621094,0.002929687500
0.050155639648,0.020401000977,0.156539916992,-0.003555297852,-0.020645141602,0.003112792969
0.046447753906,0.024246215820,0.152877807617,-0.002685546875,-0.017181396484,0.002426147461

0.027648925781,-0.016586303711,0.229217529297,0.021667480469,0.001266479492,-0.008300781250
0.060699462891,-0.039123535156,0.340454101563,0.013839721680,0.008346557617,-0.011688232422
0.175323486328,-0.039062500000,0.499938964844,-0.025756835938,0.039382934570,0.000122070313
0.181854248047,0.019149780273,0.499938964844,-0.034454345703,0.073776245117,0.019714355469
0.122634887695,-0.138031005859,0.499938964844,-0.025573730469,0.158630371094,0.015930175781
-0.076400756836,-0.103469848633,0.499938964844,-0.032196044922,0.188064575195,0.022155761719
-0.167541503906,-0.056335449219,0.488479614258,-0.018981933594,0.224304199219,0.021987915039
-0.296524047852,0.063491821289,0.310333251953,-0.013442993164,0.230575561523,0.019088745117
-0.342407226563,0.111587524414,0.197158813477,-0.014923095703,0.220184326172,0.002761840820
-0.295730590820,0.073165893555,0.050659179688,-0.035263061523,0.202255249023,-0.011093139648
-0.241424560547,0.027542114258,0.060119628906,-0.033035278320,0.182479858398,-0.020858764648
-0.242675781250,0.026931762695,0.005722045898,-0.020172119141,0.158126831055,-0.021652221680
-0.259872436523,0.042877197266,-0.075668334961,-0.015548706055,0.150451660156,-0.022827148438
-0.246704101563,-0.000350952148,-0.251403808594,-0.008300781250,0.119674682617,-0.023422241211
-0.192413330078,-0.031600952148,-0.267425537109,-0.006362915039,0.095901489258,-0.020828247070
-0.095184326172,-0.121978759766,-0.227737426758,-0.005187988281,0.045944213867,-0.010253906250
-0.064239501953,-0.187225341797,-0.252975463867,-0.008651733398,0.024414062500,-0.004348754883
-0.046173095703,-0.163314819336,-0.313568115234,-0.025329589844,-0.024078369141,0.028427124023
-0.020812988281,-0.113967895508,-0.316024780273,-0.031005859375,-0.045761108398,0.042266845703
-0.031494140625,-0.015747070313,-0.191864013672,-0.021682739258,-0.055328369141,0.040252685547
0.018157958984,-0.005691528320,-0.237503051758,-0.019042968750,-0.027679443359,0.020126342773
0.016189575195,0.007720947266,-0.181488037109,0.010955810547,-0.038330078125,0.006820678711
0.012496948242,0.036758422852,-0.169967651367,0.011154174805,-0.042404174805,0.005615234375
0.030792236328,0.022705078125,-0.122161865234,0.008911132813,-0.046951293945,-0.010498046875
0.045150756836,0.014190673828,-0.088119506836,0.011840820313,-0.050369262695,-0.014114379883
0.080703735352,-0.012420654297,-0.045043945313,0.010253906250,-0.055953979492,-0.014251708984
0.088760375977,-0.016647338867,-0.040649414063,0.005004882813,-0.055419921875,-0.011398315430
0.096130371094,-0.016815185547,-0.038787841797,-0.002868652344,-0.054656982422,-0.007843017578
0.094375610352,-0.021102905273,-0.039138793945,0.000045776367,-0.056259155273,-0.008773803711
0.098388671875,-0.038192749023,-0.015533447266,0.005386352539,-0.058792114258,-0.009857177734
0.107101440430,-0.044540405273,0.009521484375,0.009155273438,-0.059890747070,-0.008865356445
0.110427856445,-0.045227050781,0.045043945313,0.016250610352,-0.055023193359,-0.007980346680
0.109130859375,-0.039428710938,0.058990478516,0.019058227539,-0.052444458008,-0.006225585938
0.111602783203,-0.035034179688,0.063171386719,0.016342163086,-0.043197631836,-0.002822875977
0.103790283203,-0.021972656250,0.049087524414,0.012664794922,-0.039672851563,-0.001373291016
0.101867675781,-0.027206420898,0.047592163086,0.009582519531,-0.037368774414,0.003829956055
0.109893798828,-0.030014038086,0.063018798828,0.004226684570,-0.033004760742,0.003341674805
0.114227294922,-0.019866943359,0.070510864258,0.000640869141,-0.030319213867,0.004943847656
0.122726440430,-0.008392333984,0.070175170898,-0.004791259766,-0.028793334961,0.007202148438
0.117645263672,-0.004470825195,0.079742431641,-0.003982543945,-0.034896850586,0.009307861328
0.117172241211,-0.000305175781,0.079620361328,-0.002655029297,-0.035263061523,0.008804321289
0.117980957031,0.001922607422,0.083160400391,0.001220703125,-0.033645629883,0.007431030273
0.111267089844,0.000701904297,0.079498291016,0.009552001953,-0.032165527344,0.005569458008
0.109237670898,-0.000961303711,0.073791503906,0.009399414063,-0.030807495117,0.005676269531
0.108398437500,-0.001770019531,0.080810546875,0.008438110352,-0.029113769531,0.006118774414
0.110855102539,-0.000930786133,0.091598510742,0.008483886719,-0.027511596680,0.005767822266
0.113006591797,0.001388549805,0.098800659180,0.007690429688,-0.021575927734,0.004791259766
0.109329223633,0.001617431641,0.094833374023,0.006027221680,-0.018569946289,0.004486083984
0.106994628906,0.000656127930,0.089462280273,0.003921508789,-0.016235351563,0.004013061523
0.100616455078,-0.002227783203,0.073837280273,0.002349853516,-0.013961791992,0.003112792969
0.096710205078,-0.003280639648,0.066329956055,0.002182006836,-0.013977050781,0.003067016602
0.089630126953,-0.003128051758,0.056640625000,0.001251220703,-0.016174316406,0.003921508789
0.088623046875,-0.003112792969,0.058242797852,0.000625610352,-0.017883300781,0.004470825195
0.091293334961,-0.004913330078,0.074188232422,0.001556396484,-0.020309448242,0.004928588867
0.095581054688,-0.007110595703,0.085403442383,0.002380371094,-0.020568847656,0.004913330078
0.104812622070,-0.007247924805,0.106796264648,0.002593994141,-0.019485473633,0.005172729492
0.106018066406,-0.004699707031,0.112991333008,0.001968383789,-0.018310546875,0.005523681641
0.104248046875,0.002166748047,0.108062744141,0.000396728516,-0.014862060547,0.005874633789
0.096832275391,0.004516601563,0.103225708008,-0.000869750977,-0.013320922852,0.005706787109
0.092895507813,0.006347656250,0.096893310547,-0.000946044922,-0.010986328125,0.004394531250
0.086532592773,0.005050659180,0.085006713867,-0.000091552734,-0.010467529297,0.003555297852
0.084243774414,0.003524780273,0.080261230469,0.000320434570,-0.010314941406,0.002868652344
0.076049804688,0.005081176758,0.070602416992,0.001251220703,-0.010971069336,0.001922607422
0.071502685547,0.005691528320,0.064926147461,0.002105712891,-0.011672973633,0.001419067383
0.062957763672,0.000610351563,0.054443359375,0.004394531250,-0.014312744141,0.000762939453
0.061935424805,-0.004287719727,0.057754516602,0.004455566406,-0.016052246094,0.000579833984
0.077026367188,-0.013427734375,0.088394165039,0.002441406250,-0.019912719727,0.000183105469
0.084945678711,-0.013992309570,0.104812622070,-0.001327514648,-0.021255493164,0.001174926758
0.090209960938,-0.009155273438,0.122406005859,-0.008666992188,-0.021591186523,0.004302978516
0.094390869141,0.002777099609,0.140380859375,-0.009140014648,-0.019790649414,0.005187988281
0.091918945313,0.005874633789,0.139007568359,-0.008407592773,-0.017120361328,0.005355834961
0.079772949219,0.006835937500,0.117599487305,-0.004974365234,-0.011093139648,0.004699707031
0.075500488281,0.003631591797,0.107650756836,-0.002365112305,-0.009399414063,0.003707885742
0.069763183594,0.001205444336,0.098953247070,0.000473022461,-0.008209228516,0.002807617188
0.066726684570,0.003295898438,0.096420288086,0.002227783203,-0.008041381836,0.002319335938
0.068298339844,0.003005981445,0.102813720703,0.004226684570,-0.007965087891,0.000991821289
0.074737548828,0.001770019531,0.113876342773,0.003967285156,-0.007934570313,0.000518798828
0.080886840820,0.004959106445,0.132736206055,-0.002502441406,-0.007919311523,-0.000091552734
0.084197998047,0.006134033203,0.141525268555,-0.004241943359,-0.008438110352,0.000595092773
0.084655761719,0.007461547852,0.141250610352,-0.004547119141,-0.004898071289,0.001831054688
0.077758789063,0.007720947266,0.135299682617,-0.003997802734,-0.001541137695,0.001724243164
0.073562622070,0.007781982422,0.126754760742,-0.001617431641,0.004348754883,0.000473022461
0.063995361328,0.009445190430,0.106521606445,0.003555297852,0.006042480469,-0.000396728516
0.061462402344,0.008377075195,0.096755981445,0.004714965820,0.006652832031,-0.001007080078
0.057723999023,0.008941650391,0.088241577148,0.004440307617,0.004837036133,-0.001068115234
0.058898925781,0.009963989258,0.088973999023,0.003250122070,0.003402709961,-0.001022338867
0.062683105469,0.007141113281,0.091461181641,0.001190185547,0.001098632813,-0.000869750977
0.064941406250,0.004379272461,0.096862792969,0.000091552734,0.000106811523,-0.000473022461
0.071228027344,0.001983642578,0.105484008789,-0.002258300781,-0.000961303711,0.000000000000
0.072738647461,-0.000137329102,0.107894897461,-0.002624511719,-0.000900268555,0.000137329102
0.073928833008,-0.001068115234,0.108718872070,-0.002334594727,0.000015258789,0.000671386719
0.073211669922,0.000885009766,0.107925415039,-0.001556396484,0.000869750977,0.000686645508
0.071014404297,0.002624511719,0.104309082031,-0.000137329102,0.002471923828,0.000015258789
0.066452026367,0.004180908203,0.094238281250,0.001876831055,0.002624511719,-0.000366210937
0.065597534180,0.004653930664,0.092086791992,0.001846313477,0.002349853516,-0.000610351563
0.064666748047,0.003646850586,0.088211059570,0.001693725586,0.001098632813,-0.000640869141
0.064819335938,0.002532958984,0.087173461914,0.001434326172,0.000366210937,-0.000411987305
0.064987182617,0.002395629883,0.088806152344,0.000854492188,-0.001281738281,0.000244140625
0.066864013672,0.001342773438,0.092529296875,0.000854492188,-0.002029418945,0.000320434570
0.070617675781,-0.000137329102,0.100250244141,0.000122070313,-0.003219604492,0.000488281250
0.070465087891,0.000305175781,0.101425170898,-0.000228881836,-0.003356933594,0.000793457031
0.069274902344,0.001113891602,0.100677490234,0.000228881836,-0.003082275391,0.001190185547
0.068923950195,0.000518798828,0.101287841797,0.000411987305,-0.002960205078,0.001205444336
0.069396972656,-0.000030517578,0.103317260742,0.001358032227,-0.002426147461,0.001022338867

0.001296997070,-0.038543701172,0.203674316406,0.021606445313,0.004898071289,0.007110595703
0.029525756836,-0.049957275391,0.271209716797,0.033432006836,0.008209228516,0.007308959961
0.081222534180,-0.005218505859,0.499938964844,0.044219970703,0.017715454102,-0.000076293945
0.075729370117,0.134399414063,0.499938964844,0.016387939453,0.038711547852,0.011535644531
0.007431030273,0.211502075195,0.499938964844,-0.005065917969,0.134063720703,0.019989013672
-0.220108032227,0.135818481445,0.499938964844,-0.010620117188,0.174652099609,-0.002456665039
-0.218582153320,-0.087890625000,0.499938964844,-0.014801025391,0.192321777344,-0.039321899414
-0.415695190430,-0.106491088867,0.378112792969,-0.000854492188,0.227783203125,-0.029037475586
-0.461196899414,-0.044723510742,0.209197998047,0.002075195313,0.247146606445,-0.022109985352
-0.405471801758,-0.031326293945,-0.031906127930,-0.009429931641,0.240249633789,-0.025375366211
-0.340042114258,-0.044158935547,-0.045989990234,-0.006958007813,0.217819213867,-0.024017333984
-0.259155273438,-0.050857543945,-0.002319335938,0.021179199219,0.189682006836,-0.017715454102
-0.255050659180,-0.034332275391,-0.058425903320,0.034973144531,0.186721801758,-0.010620117188
-0.202774047852,-0.027877807617,-0.185531616211,0.028671264648,0.170639038086,0.002624511719
-0.161819458008,-0.037216186523,-0.192306518555,0.019546508789,0.155670166016,0.005416870117
-0.113418579102,-0.039611816406,-0.248184204102,0.028717041016,0.125656127930,0.010101318359
-0.096664428711,-0.031280517578,-0.249908447266,0.033920288086,0.104125976563,0.015075683594
-0.071548461914,-0.023025512695,-0.267425537109,0.028732299805,0.065078735352,0.023681640625
-0.067260742188,-0.000793457031,-0.241058349609,0.018615722656,0.046676635742,0.027679443359
-0.069946289063,0.047332763672,-0.227157592773,0.006439208984,0.018341064453,0.033248901367
-0.078582763672,0.071716308594,-0.208541870117,-0.000961303711,0.007339477539,0.032882690430
-0.074081420898,0.086044311523,-0.196594238281,0.002899169922,-0.006546020508,0.024703979492
-0.077362060547,0.091552734375,-0.206604003906,0.006271362305,-0.010925292969,0.019592285156
-0.084213256836,0.100234985352,-0.216674804688,0.005050659180,-0.018371582031,0.011260986328
-0.082290649414,0.100662231445,-0.225906372070,0.002349853516,-0.023117065430,0.006530761719
-0.076522827148,0.089019775391,-0.218139648438,0.001739501953,-0.027694702148,0.001800537109
-0.066650390625,0.069351196289,-0.197174072266,-0.000701904297,-0.035995483398,-0.007949829102
-0.062088012695,0.056549072266,-0.194824218750,-0.002990722656,-0.040466308594,-0.011886596680
-0.050903320313,0.034774780273,-0.183151245117,-0.010681152344,-0.052200317383,-0.017333984375
-0.047546386719,0.027587890625,-0.173141479492,-0.014739990234,-0.059020996094,-0.018600463867
-0.036468505859,0.016601562500,-0.144836425781,-0.019592285156,-0.071029663086,-0.019241333008
-0.029754638672,0.011856079102,-0.129821777344,-0.019027709961,-0.075744628906,-0.018814086914
-0.025756835938,0.015365600586,-0.107498168945,-0.016815185547,-0.082839965820,-0.018753051758
-0.019363403320,0.010910034180,-0.098480224609,-0.016860961914,-0.085617065430,-0.020950317383
-0.004913330078,-0.001434326172,-0.079910278320,-0.013519287109,-0.090774536133,-0.024612426758
0.003341674805,-0.020904541016,-0.050079345703,-0.008804321289,-0.093750000000,-0.025863647461
0.015930175781,-0.031936645508,-0.017669677734,-0.006164550781,-0.094268798828,-0.024719238281
0.018997192383,-0.030242919922,-0.007415771484,-0.005187988281,-0.093795776367,-0.021667480469
0.026977539063,-0.031631469727,0.013671875000,-0.005310058594,-0.090713500977,-0.015869140625
0.028839111328,-0.029876708984,0.016677856445,-0.005828857422,-0.087936401367,-0.011657714844
0.028671264648,-0.024887084961,0.023986816406,-0.007247924805,-0.085281372070,-0.007476806641
0.028259277344,-0.022369384766,0.032562255859,-0.006774902344,-0.084671020508,-0.006225585938
0.027008056641,-0.031219482422,0.054504394531,-0.003494262695,-0.084426879883,-0.004547119141
0.033813476563,-0.041946411133,0.074539184570,-0.002304077148,-0.084686279297,-0.002944946289
0.060089111328,-0.063186645508,0.135269165039,0.000991821289,-0.086349487305,-0.000061035156
0.063705444336,-0.057281494141,0.151473999023,0.000610351563,-0.084609985352,0.002029418945
0.064224243164,-0.042770385742,0.162872314453,-0.010116577148,-0.075012207031,0.008651733398
0.064300537109,-0.012893676758,0.159225463867,-0.014831542969,-0.068893432617,0.010574340820
0.061599731445,-0.004684448242,0.148117065430,-0.015090942383,-0.059036254883,0.011169433594
0.056427001953,-0.003143310547,0.136016845703,-0.009490966797,-0.056671142578,0.010040283203
0.060714721680,-0.008117675781,0.149093627930,-0.007995605469,-0.055816650391,0.008850097656
0.066650390625,-0.005920410156,0.185165405273,-0.007476806641,-0.053894042969,0.009826660156
0.066406250000,0.003463745117,0.196136474609,-0.007873535156,-0.050247192383,0.010910034180
0.064285278320,0.009719848633,0.194366455078,-0.007217407227,-0.038177490234,0.010101318359
0.062759399414,0.009094238281,0.190887451172,-0.006286621094,-0.032821655273,0.009002685547
0.059066772461,0.008148193359,0.182083129883,-0.003677368164,-0.024459838867,0.006240844727
0.054962158203,0.010269165039,0.171966552734,-0.003265380859,-0.020462036133,0.004943847656
0.049850463867,0.012145996094,0.150665283203,-0.003570556641,-0.015350341797,0.002487182617
0.047164916992,0.010391235352,0.137512207031,-0.002014160156,-0.014816284180,0.000793457031
0.042297363281,0.009170532227,0.114013671875,0.000305175781,-0.016921997070,-0.002044677734
0.048889160156,-0.002822875977,0.108047485352,0.001022338867,-0.019332885742,-0.002929687500
0.045349121094,-0.028381347656,0.080978393555,-0.014663696289,-0.041229248047,-0.002212524414
0.023269653320,-0.009460449219,0.203933715820,-0.025100708008,-0.046813964844,0.000656127930
0.047561645508,-0.005584716797,0.199401855469,0.003738403320,-0.040710449219,-0.001068115234
0.041992187500,-0.004196166992,0.218185424805,0.004577636719,-0.033737182617,-0.001586914063
0.039047241211,0.003479003906,0.204269409180,0.004165649414,-0.023513793945,-0.001510620117
0.024902343750,0.001144409180,0.162857055664,0.009689331055,-0.007827758789,-0.003524780273
0.022811889648,-0.003997802734,0.139755249023,0.010910034180,-0.003067016602,-0.003875732422
0.017715454102,0.000625610352,0.118759155273,0.006195068359,0.000686645508,-0.001617431641
0.015686035156,0.002059936523,0.113739013672,0.008651733398,0.000198364258,-0.002273559570
0.024200439453,-0.007507324219,0.113296508789,0.013320922852,-0.001266479492,-0.003906250000
0.026229858398,-0.012695312500,0.116897583008,0.013183593750,-0.002029418945,-0.004257202148
0.029464721680,-0.024291992188,0.123641967773,0.010421752930,-0.001831054688,-0.003311157227
0.034942626953,-0.029479980469,0.123992919922,0.008209228516,-0.001266479492,-0.002502441406
0.036788940430,-0.025283813477,0.129165649414,0.003540039063,-0.000076293945,-0.000015258789
0.033828735352,-0.021911621094,0.124633789063,0.003158569336,0.001098632813,0.000747680664
0.032577514648,-0.018264770508,0.116653442383,0.003097534180,0.001937866211,0.001464843750
0.031661987305,-0.016311645508,0.107559204102,0.001144409180,0.001449584961,0.001586914063
0.031814575195,-0.015350341797,0.107772827148,-0.000350952148,0.000473022461,0.001770019531
0.031539916992,-0.012069702148,0.112731933594,-0.002029418945,-0.001159667969,0.001953125000
0.031738281250,-0.011764526367,0.117034912109,-0.002914428711,-0.001724243164,0.001739501953
0.031234741211,-0.008514404297,0.122970581055,-0.002319335938,-0.001663208008,0.001266479492
0.031341552734,-0.008666992188,0.125350952148,-0.002182006836,-0.001296997070,0.000930786133
0.030838012695,-0.010635375977,0.124145507813,-0.000595092773,-0.000015258789,0.000030517578
0.030715942383,-0.011596679688,0.120895385742,-0.000427246094,0.000534057617,-0.000320434570
0.030471801758,-0.013122558594,0.117340087891,-0.000488281250,0.000762939453,-0.000473022461
0.030456542969,-0.013198852539,0.116027832031,-0.000030517578,0.000732421875,-0.000442504883
0.030364990234,-0.013076782227,0.116775512695,0.000259399414,0.000183105469,-0.000396728516
0.031051635742,-0.014541625977,0.117980957031,0.000061035156,-0.000015258789,-0.000381469727
0.031188964844,-0.015106201172,0.118438720703,-0.000091552734,-0.000030517578,-0.000076293945
0.031127929688,-0.013977050781,0.117080688477,-0.000442504883,-0.000106811523,0.000091552734
0.030868530273,-0.014739990234,0.116394042969,-0.000595092773,-0.000167846680,0.000198364258
0.030502319336,-0.012130737305,0.119140625000,-0.001083374023,-0.000366210937,0.000671386719
0.030197143555,-0.010498046875,0.119842529297,-0.000625610352,-0.000335693359,0.000732421875
0.029953002930,-0.011352539063,0.120193481445,0.000228881836,-0.000274658203,0.000579833984
0.029998779297,-0.011032104492,0.120986938477,-0.000274658203,-0.000228881836,0.000686645508
0.029953002930,-0.011642456055,0.119949340820,0.000717163086,0.000213623047,0.000518798828
0.030273437500,-0.011642456055,0.119323730469,0.000823974609,0.000366210937,0.000610351563
0.030670166016,-0.012283325195,0.120056152344,0.000289916992,0.000427246094,0.000579833984
0.030654907227,-0.011825561523,0.119430541992,0.000518798828,0.000610351563,0.000579833984
0.030654907227,-0.011627197266,0.118698120117,0.000549316406,0.000762939453,0.000411987305
0.031082153320,-0.012695312500,0.116439819336,0.000488281250,0.000732421875,0.000427246094
0.030807495117,-0.012176513672,0.115051269531,0.000595092773,0.000518798828,0.000473022461
0.030944824219,-0.012084960938,0.115692138672,0.000549316406,0.000045776367,0.000442504883

0.021377563477,0.003372192383,0.226760864258,0.012680053711,-0.010375976563,0.005187988281
0.029479980469,0.014526367188,0.301834106445,0.016967773438,-0.012908935547,0.000915527344
0.050094604492,0.146484375000,0.499938964844,0.047622680664,-0.024459838867,-0.021224975586
0.007888793945,0.136093139648,0.499938964844,0.050018310547,0.019439697266,-0.035598754883
-0.057769775391,0.089569091797,0.499938964844,0.062454223633,0.113693237305,-0.022491455078
-0.102813720703,0.008117675781,0.452575683594,0.066131591797,0.129699707031,-0.022308349609
-0.099639892578,-0.050628662109,0.437606811523,0.069412231445,0.138107299805,-0.025665283203
-0.099609375000,-0.105239868164,0.382736206055,0.068298339844,0.157699584961,-0.009170532227
-0.123291015625,-0.093078613281,0.254302978516,0.063064575195,0.169097900391,0.001235961914
-0.121231079102,-0.122741699219,0.137451171875,0.047851562500,0.170959472656,0.013961791992
-0.122940063477,-0.133590698242,0.080871582031,0.045440673828,0.168350219727,0.023483276367
-0.125030517578,-0.105941772461,-0.076110839844,0.024002075195,0.153945922852,0.048660278320
-0.099609375000,-0.115432739258,-0.161331176758,0.008041381836,0.143356323242,0.055252075195
-0.067489624023,-0.115661621094,-0.199264526367,-0.017745971680,0.107101440430,0.061706542969
-0.057357788086,-0.098770141602,-0.189666748047,-0.021957397461,0.090667724609,0.064636230469
-0.051269531250,-0.056594848633,-0.181625366211,-0.022445678711,0.061645507813,0.066726684570
-0.036956787109,-0.054641723633,-0.142532348633,-0.019393920898,0.046813964844,0.062530517578
-0.031799316406,-0.036727905273,-0.128051757813,-0.026611328125,0.034591674805,0.053482055664
-0.020034790039,-0.015106201172,-0.120635986328,-0.023681640625,0.027404785156,0.047622680664
-0.014862060547,-0.006973266602,-0.120574951172,-0.021347045898,0.017166137695,0.040939331055
-0.006332397461,0.023162841797,-0.081192016602,-0.022964477539,0.012924194336,0.038864135742
-0.009216308594,0.039764404297,-0.070739746094,-0.018218994141,0.011520385742,0.035461425781
-0.003143310547,0.044830322266,-0.069183349609,-0.006912231445,0.008819580078,0.019851684570
0.002090454102,0.039749145508,-0.067749023438,-0.004638671875,0.008026123047,0.015609741211
0.013778686523,0.030975341797,-0.067581176758,-0.003921508789,0.004119873047,0.009307861328
0.016921997070,0.027877807617,-0.063049316406,-0.004074096680,0.000686645508,0.007995605469
0.020324707031,0.022766113281,-0.053985595703,-0.009307861328,-0.002899169922,0.010025024414
0.022567749023,0.022674560547,-0.054443359375,-0.012527465820,-0.004455566406,0.012344360352
0.028335571289,0.027023315430,-0.065994262695,-0.017196655273,-0.006683349609,0.014999389648
0.032226562500,0.030868530273,-0.070251464844,-0.017822265625,-0.007781982422,0.014297485352
0.030670166016,0.035827636719,-0.069656372070,-0.011169433594,-0.010238647461,0.010635375977
0.038665771484,0.038406372070,-0.072586059570,-0.003921508789,-0.010925292969,0.007781982422
0.039947509766,0.037689208984,-0.073394775391,0.011535644531,-0.013198852539,0.000823974609
0.043487548828,0.035980224609,-0.071960449219,0.014160156250,-0.013916015625,-0.002197265625
0.046173095703,0.033828735352,-0.062393188477,0.017608642578,-0.014999389648,-0.006057739258
0.057998657227,0.024642944336,-0.031692504883,0.018524169922,-0.015502929688,-0.012313842773
0.062301635742,0.021499633789,-0.025161743164,0.016006469727,-0.013931274414,-0.013275146484
0.067962646484,0.032211303711,-0.017837524414,0.008224487305,-0.010253906250,-0.011215209961
0.070693969727,0.043167114258,-0.022018432617,0.007476806641,-0.007705688477,-0.011428833008
0.080749511719,0.023986816406,-0.044647216797,0.009262084961,-0.010833740234,-0.011352539063
0.080032348633,0.027359008789,-0.046966552734,0.006973266602,-0.015686035156,-0.007705688477
0.079574584961,0.038925170898,-0.040618896484,0.005432128906,-0.020935058594,-0.009506225586
0.083007812500,0.044769287109,-0.040313720703,0.009613037109,-0.020568847656,-0.012573242188
0.079895019531,0.042694091797,-0.041839599609,0.020889282227,-0.019653320313,-0.021286010742
0.085067749023,0.037719726563,-0.032531738281,0.025604248047,-0.020828247070,-0.023300170898
0.087020874023,0.028793334961,-0.022232055664,0.027343750000,-0.018905639648,-0.024841308594
0.094955444336,0.015319824219,-0.011871337891,0.022827148438,-0.018157958984,-0.022476196289
0.092590332031,0.020355224609,-0.002304077148,0.016265869141,-0.018112182617,-0.018753051758
0.088531494141,0.022064208984,-0.007308959961,0.011642456055,-0.015594482422,-0.015228271484
0.084518432617,0.022796630859,-0.014205932617,0.012039184570,-0.014831542969,-0.014923095703
0.076889038086,0.022872924805,-0.028472900391,0.010772705078,-0.016189575195,-0.016082763672
0.074890136719,0.018310546875,-0.033691406250,0.009689331055,-0.017608642578,-0.017303466797
0.071853637695,0.009338378906,-0.036422729492,0.009201049805,-0.021148681641,-0.018463134766
0.069625854492,0.005004882813,-0.036956787109,0.009582519531,-0.023208618164,-0.018829345703
0.071060180664,-0.012100219727,-0.028961181641,0.012008666992,-0.027618408203,-0.021896362305
0.071212768555,-0.018966674805,-0.025192260742,0.013412475586,-0.029602050781,-0.021789550781
0.073455810547,-0.027862548828,0.002365112305,0.012451171875,-0.033447265625,-0.021087646484
0.074996948242,-0.032348632813,0.015716552734,0.014114379883,-0.033889770508,-0.021026611328
0.077285766602,-0.031265258789,0.029266357422,0.018814086914,-0.032424926758,-0.021606445313
0.076599121094,-0.031982421875,0.035400390625,0.019912719727,-0.031097412109,-0.022506713867
0.073913574219,-0.028121948242,0.023651123047,0.022842407227,-0.029922485352,-0.025848388672
0.067367553711,-0.034713745117,0.016326904297,0.023971557617,-0.029495239258,-0.028350830078
0.064865112305,-0.041046142578,0.004913330078,0.023330688477,-0.029678344727,-0.029937744141
0.055847167969,-0.048797607422,0.001556396484,0.018371582031,-0.035156250000,-0.030548095703
0.054977416992,-0.056411743164,0.000930786133,0.016250610352,-0.038131713867,-0.031494140625
0.066070556641,-0.065628051758,0.033645629883,0.012710571289,-0.045684814453,-0.031661987305
0.048843383789,-0.089859008789,0.015045166016,0.001663208008,-0.040115356445,-0.038925170898
0.057540893555,-0.110000610352,0.026809692383,-0.019241333008,-0.050506591797,-0.033279418945
0.051895141602,-0.106231689453,0.042694091797,-0.024581909180,-0.057434082031,-0.026763916016
0.047164916992,-0.096664428711,0.089370727539,-0.035049438477,-0.065719604492,-0.013916015625
0.045516967773,-0.092056274414,0.096405029297,-0.037277221680,-0.063720703125,-0.010406494141
0.044616699219,-0.072799682617,0.128540039063,-0.030166625977,-0.061981201172,-0.004669189453
0.044952392578,-0.073699951172,0.117340087891,-0.025207519531,-0.054550170898,-0.007446289063
0.039443969727,-0.086746215820,0.101486206055,-0.026535034180,-0.047531127930,-0.005554199219
0.037002563477,-0.084548950195,0.108947753906,-0.031311035156,-0.048156738281,-0.000213623047
0.029678344727,-0.071792602539,0.169265747070,-0.029830932617,-0.053497314453,-0.000503540039
0.039901733398,-0.066635131836,0.195449829102,-0.028488159180,-0.050979614258,-0.001129150391
0.045547485352,-0.057586669922,0.214660644531,-0.036071777344,-0.041244506836,0.000457763672
0.041366577148,-0.022415161133,0.230285644531,-0.035171508789,-0.034561157227,0.001007080078
0.041992187500,-0.022079467773,0.230148315430,-0.030227661133,-0.028442382813,0.003372192383
0.042129516602,-0.017242431641,0.222534179688,-0.032333374023,-0.017135620117,0.004669189453
0.029357910156,-0.008697509766,0.205734252930,-0.034729003906,-0.012527465820,0.008316040039
0.017822265625,-0.129867553711,0.227005004883,-0.041931152344,-0.013961791992,0.008728027344
0.000091552734,0.171844482422,0.487487792969,-0.097808837891,-0.066421508789,0.045074462891
-0.003326416016,-0.003265380859,0.157272338867,0.033370971680,0.022338867188,-0.011764526367
0.027282714844,-0.051376342773,0.083190917969,0.042404174805,0.007843017578,-0.019744873047
0.028121948242,-0.060012817383,0.252319335938,-0.021957397461,-0.006469726563,-0.008178710938
0.037200927734,-0.027053833008,0.305755615234,0.004302978516,-0.000732421875,-0.003616333008
0.033798217773,0.013931274414,0.208557128906,0.059448242188,0.037857055664,-0.006011962891
0.010498046875,0.027236938477,0.121307373047,0.046264648438,0.053283691406,-0.006195068359
0.004058837891,0.028305053711,0.053573608398,0.018737792969,0.046356201172,0.001159667969
0.000762939453,0.008743286133,-0.013214111328,0.001205444336,0.037567138672,0.000823974609
0.005722045898,-0.002410888672,-0.050582885742,-0.007339477539,0.030624389648,-0.000595092773
0.031188964844,-0.042434692383,0.028701782227,-0.001525878906,-0.002136230469,-0.001678466797
0.034225463867,-0.034378051758,0.059600830078,-0.007904052734,-0.009902954102,0.001159667969
0.045455932617,-0.034866333008,0.092727661133,-0.003189086914,-0.015045166016,0.003234863281
0.036361694336,-0.028594970703,0.118667602539,-0.004623413086,-0.017135620117,0.003143310547
0.037765502930,-0.029449462891,0.164031982422,0.002288818359,-0.014114379883,0.003677368164
0.035858154297,-0.020126342773,0.149185180664,0.005157470703,-0.008712768555,0.004760742188
0.033203125000,-0.005767822266,0.131729125977,-0.001174926758,-0.003005981445,0.005844116211
0.032913208008,-0.005065917969,0.130554199219,-0.000839233398,-0.002532958984,0.004837036133
0.033126831055,-0.003921508789,0.131057739258,-0.001419067383,-0.002059936523,0.003082275391
0.032852172852,-0.005355834961,0.125701904297,-0.000885009766,-0.001220703125,0.002334594727
0.032699584961,-0.011047363281,0.114578247070,0.000656127930,-0.000793457031,0.001190185547

0.008697509766,0.027313232422,0.266815185547,0.019226074219,-0.010879516602,-0.007369995117
0.079864501953,0.102005004883,0.499938964844,0.017211914063,-0.013595581055,-0.021911621094
0.087936401367,0.147323608398,0.499938964844,0.009429931641,0.058532714844,-0.040710449219
0.034957885742,-0.002731323242,0.499938964844,0.022384643555,0.113494873047,-0.044448852539
-0.134918212891,-0.044250488281,0.499938964844,0.082763671875,0.183502197266,-0.029968261719
-0.168579101563,0.001770019531,0.401062011719,0.103378295898,0.194137573242,-0.018341064453
-0.193893432617,0.043869018555,0.333694458008,0.102203369141,0.193664550781,-0.005828857422
-0.181549072266,-0.020568847656,0.190582275391,0.097824096680,0.194107055664,-0.003112792969
-0.193634033203,-0.026672363281,0.105621337891,0.092163085938,0.189712524414,0.004516601563
-0.199539184570,-0.036331176758,-0.082031250000,0.066986083984,0.172821044922,0.018005371094
-0.183517456055,-0.045211791992,-0.185379028320,0.051315307617,0.156936645508,0.028045654297
-0.104080200195,-0.144317626953,-0.318695068359,0.006805419922,0.105255126953,0.047378540039
-0.050994873047,-0.183898925781,-0.307678222656,-0.007003784180,0.079345703125,0.057189941406
-0.013229370117,-0.166412353516,-0.219757080078,-0.005981445313,0.040634155273,0.067550659180
-0.018646240234,-0.121658325195,-0.173477172852,-0.006774902344,0.027801513672,0.068618774414
-0.019760131836,-0.036087036133,-0.141281127930,-0.017288208008,0.011459350586,0.073745727539
-0.010208129883,-0.001937866211,-0.120437622070,-0.022293090820,0.003723144531,0.073272705078
0.001678466797,0.053024291992,-0.069946289063,-0.020309448242,-0.002578735352,0.063278198242
0.015609741211,0.068664550781,-0.055984497070,-0.013275146484,-0.001785278320,0.052932739258
0.025573730469,0.073196411133,-0.049682617188,0.002868652344,0.001358032227,0.025680541992
0.038330078125,0.067413330078,-0.048233032227,0.007705688477,0.004730224609,0.010772705078
0.050277709961,0.053695678711,-0.055236816406,0.014068603516,0.007049560547,-0.003738403320
0.061096191406,0.024520874023,-0.044448852539,0.020095825195,0.003814697266,-0.019241333008
0.063171386719,0.012466430664,-0.032577514648,0.015197753906,0.006072998047,-0.017440795898
0.062774658203,0.016754150391,-0.064346313477,0.008590698242,0.018218994141,-0.004547119141
0.063888549805,0.018539428711,-0.087326049805,0.007934570313,0.018325805664,-0.000045776367
0.066696166992,0.016937255859,-0.092224121094,0.001831054688,0.005096435547,0.004302978516
0.066146850586,0.015808105469,-0.082382202148,-0.001525878906,-0.000091552734,0.007812500000
0.065246582031,0.020172119141,-0.082626342773,-0.007415771484,-0.003189086914,0.019363403320
0.064346313477,0.033279418945,-0.081939697266,-0.008697509766,-0.005599975586,0.021499633789
0.064636230469,0.036651611328,-0.080474853516,-0.007064819336,-0.010025024414,0.019668579102
0.066894531250,0.043380737305,-0.079727172852,-0.005798339844,-0.011184692383,0.018173217773
0.068389892578,0.044906616211,-0.077331542969,-0.004684448242,-0.012145996094,0.012496948242
0.071212768555,0.042312622070,-0.071029663086,-0.001693725586,-0.014434814453,0.011993408203
0.073699951172,0.039123535156,-0.067367553711,-0.000930786133,-0.015350341797,0.010070800781
0.078353881836,0.036865234375,-0.051361083984,-0.001953125000,-0.016403198242,0.007446289063
0.079925537109,0.037994384766,-0.041900634766,-0.003311157227,-0.016067504883,0.007171630859
0.084228515625,0.037658691406,-0.038345336914,-0.002960205078,-0.013671875000,0.006546020508
0.085906982422,0.037445068359,-0.036437988281,-0.002761840820,-0.012634277344,0.005752563477
0.086624145508,0.035202026367,-0.033721923828,-0.000930786133,-0.010055541992,0.003845214844
0.086212158203,0.033508300781,-0.037597656250,0.000823974609,-0.008499145508,0.002899169922
0.084487915039,0.032165527344,-0.052490234375,0.003021240234,-0.006530761719,0.000762939453
0.084609985352,0.030883789063,-0.059204101563,0.002822875977,-0.006484985352,-0.000228881836
0.085830688477,0.026992797852,-0.060440063477,0.001266479492,-0.008255004883,-0.001068115234
0.088058471680,0.025756835938,-0.056579589844,0.000885009766,-0.009445190430,-0.001281738281
0.089996337891,0.023010253906,-0.054534912109,0.001373291016,-0.010925292969,-0.002075195313
0.092346191406,0.019500732422,-0.049133300781,0.001983642578,-0.011428833008,-0.002136230469
0.093124389648,0.019760131836,-0.046722412109,0.002288818359,-0.011734008789,-0.002014160156
0.093414306641,0.023330688477,-0.043350219727,0.001235961914,-0.011672973633,-0.001770019531
0.094070434570,0.024795532227,-0.043075561523,0.001068115234,-0.011474609375,-0.001800537109
0.095016479492,0.027160644531,-0.042327880859,0.002838134766,-0.011489868164,-0.002746582031
0.094802856445,0.027603149414,-0.041870117188,0.003906250000,-0.011596679688,-0.003753662109
0.095733642578,0.026382446289,-0.042007446289,0.005905151367,-0.011749267578,-0.005920410156
0.096282958984,0.025878906250,-0.041000366211,0.006805419922,-0.011825561523,-0.006835937500
0.099121093750,0.024246215820,-0.036712646484,0.008712768555,-0.012481689453,-0.007705688477
0.101196289063,0.023284912109,-0.031875610352,0.009231567383,-0.012878417969,-0.007980346680
0.105789184570,0.022064208984,-0.027420043945,0.011077880859,-0.013336181641,-0.008407592773
0.106063842773,0.022552490234,-0.021728515625,0.010635375977,-0.013900756836,-0.008346557617
0.106094360352,0.024856567383,-0.012832641602,0.009338378906,-0.013305664063,-0.008331298828
0.107192993164,0.027343750000,-0.006576538086,0.008483886719,-0.012329101563,-0.008560180664
0.106491088867,0.029449462891,-0.006561279297,0.006835937500,-0.009384155273,-0.009384155273
0.100479125977,0.028213500977,-0.023925781250,0.007034301758,-0.007934570313,-0.010314941406
0.097106933594,0.024429321289,-0.033294677734,0.007858276367,-0.007507324219,-0.011230468750
0.091857910156,0.020904541016,-0.046371459961,0.007904052734,-0.008895874023,-0.012603759766
0.090499877930,0.016571044922,-0.044326782227,0.006759643555,-0.010879516602,-0.013031005859
0.088516235352,0.012710571289,-0.035018920898,0.003799438477,-0.015151977539,-0.012634277344
0.087524414063,0.012802124023,-0.028564453125,0.002868652344,-0.016998291016,-0.012634277344
0.086364746094,0.010925292969,-0.029129028320,0.003890991211,-0.019012451172,-0.013641357422
0.086105346680,0.006668090820,-0.027999877930,0.004074096680,-0.020217895508,-0.014144897461
0.087448120117,0.001983642578,-0.014007568359,0.003189086914,-0.023529052734,-0.014770507813
0.086944580078,0.003005981445,-0.014099121094,0.003540039063,-0.023696899414,-0.015319824219
0.085815429688,0.000030517578,-0.005310058594,0.009307861328,-0.025833129883,-0.017852783203
0.084899902344,-0.000015258789,-0.005569458008,0.010360717773,-0.025695800781,-0.018814086914
0.082168579102,-0.003051757813,-0.002593994141,0.011459350586,-0.026489257813,-0.019866943359
0.078735351563,-0.005432128906,-0.002822875977,0.011444091797,-0.025970458984,-0.020370483398
0.077560424805,-0.009048461914,-0.006423950195,0.009109497070,-0.025695800781,-0.020950317383
0.073562622070,-0.010910034180,-0.009994506836,0.006362915039,-0.026214599609,-0.020599365234
0.072174072266,-0.015060424805,-0.011871337891,0.002700805664,-0.028976440430,-0.020111083984
0.069839477539,-0.031143188477,-0.008255004883,0.001190185547,-0.031219482422,-0.019622802734
0.069168090820,-0.036529541016,0.001174926758,-0.000717163086,-0.033966064453,-0.018890380859
0.069213867188,-0.043869018555,0.020553588867,-0.000732421875,-0.037765502930,-0.017837524414
0.068328857422,-0.044616699219,0.026290893555,0.000839233398,-0.038269042969,-0.017669677734
0.053039550781,-0.043670654297,0.027664184570,0.006896972656,-0.038467407227,-0.018493652344
0.072738647461,-0.043029785156,0.050582885742,0.008026123047,-0.039230346680,-0.018142700195
0.047271728516,-0.065765380859,0.013275146484,-0.002548217773,-0.032852172852,-0.023025512695
0.047851562500,-0.059082031250,0.018264770508,-0.007476806641,-0.039428710938,-0.018386840820
0.046157836914,-0.044219970703,0.054473876953,-0.019500732422,-0.051239013672,-0.011779785156
0.045562744141,-0.047943115234,0.068710327148,-0.023986816406,-0.054290771484,-0.009735107422
0.043807983398,-0.057235717773,0.081222534180,-0.030746459961,-0.056732177734,-0.003479003906
0.047546386719,-0.053543090820,0.113647460938,-0.033782958984,-0.059661865234,-0.001815795898
0.052108764648,-0.046081542969,0.137893676758,-0.023742675781,-0.055038452148,-0.002288818359
0.039627075195,-0.051361083984,0.136749267578,-0.021194458008,-0.050079345703,-0.002120971680
0.035995483398,-0.027862548828,0.123764038086,-0.028625488281,-0.045242309570,0.000015258789
0.024017333984,-0.025527954102,0.142166137695,-0.027221679688,-0.048019409180,-0.001281738281
0.029785156250,-0.031112670898,0.163192749023,-0.029708862305,-0.046585083008,-0.003372192383
0.041351318359,-0.047393798828,0.213562011719,-0.032882690430,-0.043655395508,-0.002578735352
0.040481567383,-0.046905517578,0.248672485352,-0.034881591797,-0.039916992188,-0.000930786133
0.061309814453,-0.026657104492,0.274063110352,-0.020202636719,-0.030624389648,0.001068115234
0.062988281250,-0.010787963867,0.277862548828,-0.014114379883,-0.024414062500,0.001419067383
0.085296630859,-0.001510620117,0.238174438477,-0.002349853516,-0.010299682617,-0.000778198242
0.062240600586,-0.008972167969,0.133728027344,0.003280639648,-0.006835937500,-0.001602172852
-0.048187255859,0.029067993164,0.266494750977,0.001342773438,-0.074279785156,0.016754150391
0.026657104492,-0.065032958984,0.499938964844,-0.044631958008,-0.071868896484,0.006637573242
0.065307617188,0.055862426758,0.444335937500,-0.083282470703,-0.018157958984,0.005737304688

-0.032470703125,-0.054397583008,0.219482421875,-0.003753662109,-0.003646850586,0.001800537109
0.001586914063,-0.027938842773,0.295471191406,-0.005599975586,0.005676269531,0.005447387695
0.046142578125,0.045883178711,0.499938964844,-0.007400512695,0.033584594727,0.001419067383
0.021636962891,0.156433105469,0.499938964844,-0.008666992188,0.055908203125,0.004669189453
-0.003692626953,0.321777343750,0.499938964844,-0.002059936523,0.117294311523,-0.010940551758
-0.075302124023,0.262481689453,0.499938964844,0.018295288086,0.145339965820,-0.036422729492
-0.083740234375,0.169952392578,0.499938964844,0.027053833008,0.170303344727,-0.061630249023
-0.102844238281,0.030822753906,0.411071777344,0.045303344727,0.177551269531,-0.062072753906
-0.128799438477,-0.012039184570,0.333358764648,0.055877685547,0.183319091797,-0.059997558594
-0.149093627930,-0.070358276367,0.155975341797,0.064590454102,0.185272216797,-0.049240112305
-0.150314331055,-0.100677490234,0.096542358398,0.061279296875,0.177017211914,-0.041290283203
-0.138061523438,-0.167800903320,-0.071136474609,0.052688598633,0.156951904297,-0.018951416016
-0.127731323242,-0.186462402344,-0.146896362305,0.042434692383,0.141433715820,-0.003097534180
-0.067230224609,-0.215835571289,-0.233322143555,0.019897460938,0.101913452148,0.025177001953
-0.038696289063,-0.216537475586,-0.238952636719,0.017837524414,0.075576782227,0.041748046875
-0.019622802734,-0.177398681641,-0.214721679688,0.015594482422,0.035934448242,0.058944702148
-0.018432617188,-0.115936279297,-0.208770751953,0.010803222656,0.022949218750,0.068527221680
-0.020263671875,-0.052871704102,-0.144088745117,-0.022384643555,0.012237548828,0.067474365234
-0.007995605469,-0.009307861328,-0.135726928711,-0.028137207031,0.012847900391,0.071578979492
0.000762939453,0.038848876953,-0.114120483398,-0.020706176758,0.010650634766,0.059906005859
0.002700805664,0.052337646484,-0.110580444336,-0.011795043945,0.011077880859,0.046112060547
0.001800537109,0.059448242188,-0.118911743164,0.002655029297,0.013870239258,0.015914916992
0.006500244141,0.053421020508,-0.131668090820,0.008682250977,0.011962890625,0.002563476563
0.012680053711,0.041473388672,-0.142410278320,0.012832641602,0.009902954102,-0.022140502930
0.019882202148,0.019989013672,-0.122329711914,0.011657714844,-0.003860473633,-0.024566650391
0.016784667969,0.006256103516,-0.082031250000,0.002502441406,-0.006393432617,-0.020706176758
0.024520874023,0.030456542969,-0.104888916016,-0.016128540039,0.011215209961,0.004409790039
0.029739379883,0.029724121094,-0.117202758789,-0.018753051758,0.008697509766,0.008712768555
0.031341552734,0.023422241211,-0.094436645508,-0.015579223633,-0.007003784180,0.010131835938
0.033248901367,0.023651123047,-0.090057373047,-0.012374877930,-0.007904052734,0.010726928711
0.014038085938,0.046585083008,-0.100189208984,-0.007690429688,-0.005935668945,0.015151977539
0.052200317383,0.037017822266,-0.108505249023,-0.004562377930,-0.008209228516,0.010162353516
0.047485351563,0.046066284180,-0.075637817383,0.000198364258,-0.014648437500,0.003906250000
0.054138183594,0.038513183594,-0.070068359375,-0.000030517578,-0.014633178711,0.001693725586
0.056640625000,0.032424926758,-0.059249877930,0.000595092773,-0.014617919922,0.000610351563
0.065093994141,0.036148071289,-0.054992675781,-0.000518798828,-0.014526367188,-0.000106811523
0.070526123047,0.035095214844,-0.047561645508,-0.001235961914,-0.014755249023,-0.001312255859
0.078186035156,0.038681030273,-0.036941528320,-0.001663208008,-0.013153076172,-0.001007080078
0.077499389648,0.036193847656,-0.038314819336,-0.001617431641,-0.012329101563,-0.000930786133
0.076049804688,0.026138305664,-0.046310424805,-0.001953125000,-0.011306762695,-0.001861572266
0.076141357422,0.024612426758,-0.045684814453,-0.001052856445,-0.011108398438,-0.002197265625
0.079910278320,0.023391723633,-0.052154541016,0.002258300781,-0.010360717773,-0.003036499023
0.084671020508,0.021362304688,-0.057937622070,0.004104614258,-0.010375976563,-0.003784179688
0.089523315430,0.018157958984,-0.049804687500,0.004119873047,-0.011947631836,-0.003341674805
0.092010498047,0.016815185547,-0.042160034180,0.003555297852,-0.012069702148,-0.003952026367
0.099014282227,0.021896362305,-0.030776977539,0.000579833984,-0.011428833008,-0.003158569336
0.107971191406,0.025115966797,-0.019897460938,0.000198364258,-0.009841918945,-0.003311157227
0.101806640625,0.020492553711,-0.026260375977,0.002807617188,-0.006866455078,-0.002807617188
0.100601196289,0.019287109375,-0.030960083008,-0.000091552734,-0.005828857422,-0.002151489258
0.099121093750,0.017974853516,-0.037506103516,-0.001907348633,-0.004318237305,-0.002563476563
0.103210449219,0.014053344727,-0.037246704102,-0.000976562500,-0.004501342773,-0.003356933594
0.106491088867,0.012619018555,-0.034576416016,0.000808715820,-0.003479003906,-0.004455566406
0.108139038086,0.010696411133,-0.035736083984,0.002258300781,-0.002700805664,-0.004684448242
0.111694335938,0.009521484375,-0.042892456055,0.003173828125,-0.000839233398,-0.005844116211
0.107116699219,0.007614135742,-0.041610717773,0.003158569336,-0.000671386719,-0.005676269531
0.106430053711,0.005340576172,-0.041854858398,0.003601074219,-0.000152587891,-0.004714965820
0.102249145508,0.015640258789,-0.038253784180,0.005111694336,0.000915527344,-0.006347656250
0.102523803711,0.009948730469,-0.040527343750,0.006225585938,0.001525878906,-0.008316040039
0.101104736328,0.003860473633,-0.046524047852,0.002883911133,0.000885009766,-0.008285522461
0.099716186523,0.001190185547,-0.050781250000,0.001312255859,-0.000640869141,-0.008285522461
0.100845336914,-0.000106811523,-0.046890258789,-0.000946044922,-0.002471923828,-0.009048461914
0.096466064453,0.002609252930,-0.039993286133,0.001831054688,-0.003738403320,-0.009918212891
0.096374511719,-0.000152587891,-0.044631958008,0.003265380859,-0.002639770508,-0.010833740234
0.095550537109,-0.003845214844,-0.048706054688,0.003189086914,-0.003128051758,-0.010925292969
0.095245361328,-0.005569458008,-0.053070068359,0.006820678711,-0.004989624023,-0.012268066406
0.094665527344,-0.006881713867,-0.052673339844,0.007629394531,-0.006362915039,-0.013092041016
0.093017578125,-0.010131835938,-0.049453735352,0.004989624023,-0.009277343750,-0.013961791992
0.092880249023,-0.006927490234,-0.043685913086,0.004486083984,-0.010360717773,-0.014282226563
0.092147827148,-0.014190673828,-0.052154541016,0.008880615234,-0.011795043945,-0.015487670898
0.091598510742,-0.028991699219,-0.065032958984,0.008850097656,-0.014099121094,-0.015243530273
0.091171264648,-0.028701782227,-0.061279296875,0.008392333984,-0.016830444336,-0.014892578125
0.092178344727,-0.032485961914,-0.056900024414,0.005462646484,-0.021865844727,-0.013809204102
0.093811035156,-0.035827636719,-0.047866821289,0.003173828125,-0.024856567383,-0.012939453125
0.095291137695,-0.035278320313,-0.033493041992,-0.001327514648,-0.028915405273,-0.010299682617
0.096939086914,-0.036071777344,-0.030090332031,-0.002014160156,-0.029281616211,-0.009674072266
0.094238281250,-0.035614013672,-0.034790039063,-0.002410888672,-0.030654907227,-0.008407592773
0.092956542969,-0.033889770508,-0.031097412109,-0.002899169922,-0.031723022461,-0.007537841797
0.090362548828,-0.033905029297,-0.030624389648,-0.000640869141,-0.032318115234,-0.007690429688
0.088867187500,-0.035980224609,-0.034484863281,0.000488281250,-0.032440185547,-0.007873535156
0.085830688477,-0.046340942383,-0.037429809570,0.000579833984,-0.034835815430,-0.007919311523
0.082214355469,-0.034988403320,-0.007965087891,-0.002563476563,-0.036193847656,-0.007934570313
0.069442749023,-0.045043945313,-0.049057006836,-0.000839233398,-0.034927368164,-0.016403198242
0.065216064453,-0.046249389648,-0.044326782227,0.001159667969,-0.043121337891,-0.016738891602
0.059661865234,-0.058853149414,-0.011749267578,-0.007553100586,-0.055267333984,-0.015243530273
0.062316894531,-0.068054199219,0.005065917969,-0.009567260742,-0.058212280273,-0.014862060547
0.059478759766,-0.075637817383,0.032257080078,-0.012939453125,-0.061447143555,-0.011001586914
0.059997558594,-0.082489013672,0.056320190430,-0.012710571289,-0.064071655273,-0.008270263672
0.063064575195,-0.081130981445,0.082489013672,-0.012878417969,-0.064483642578,-0.002655029297
0.067581176758,-0.058258056641,0.122665405273,-0.012466430664,-0.062210083008,-0.000396728516
0.065261840820,-0.046859741211,0.126937866211,-0.010314941406,-0.058822631836,0.001281738281
0.060699462891,-0.039733886719,0.120544433594,-0.011322021484,-0.051559448242,0.001647949219
0.059173583984,-0.039016723633,0.115402221680,-0.012863159180,-0.049682617188,0.002182006836
0.058486938477,-0.041000366211,0.128082275391,-0.020858764648,-0.050048828125,0.004074096680
0.057540893555,-0.038314819336,0.148956298828,-0.023284912109,-0.050796508789,0.005477905273
0.053833007813,-0.036239624023,0.170776367188,-0.022293090820,-0.046157836914,0.007690429688
0.050613403320,-0.035446166992,0.183822631836,-0.022003173828,-0.041870117188,0.008956909180
0.051956176758,-0.039413452148,0.155792236328,-0.016403198242,-0.034271240234,0.012664794922
0.050277709961,-0.043395996094,0.155990600586,-0.017044067383,-0.033523559570,0.014205932617
0.051528930664,-0.029312133789,0.184082031250,-0.015762329102,-0.033569335938,0.016571044922
0.051620483398,-0.019744873047,0.192779541016,-0.011932373047,-0.032165527344,0.016311645508
0.047943115234,-0.012802124023,0.191909790039,-0.003860473633,-0.025924682617,0.013748168945
0.043045043945,0.002700805664,0.176071166992,-0.002655029297,-0.023834228516,0.013000488281
0.042144775391,0.000198364258,0.175064086914,-0.000686645508,-0.023345947266,0.007843017578
0.040908813477,-0.000823974609,0.180953979492,0.005508422852,-0.019744873047,0.006195068359

0.013305664063,-0.037139892578,0.188827514648,-0.006408691406,-0.003128051758,0.003219604492
0.002761840820,-0.070938110352,0.273757934570,-0.003250122070,-0.000381469727,0.005950927734
0.027084350586,0.053207397461,0.499938964844,0.017379760742,0.030899047852,0.008209228516
-0.000198364258,0.210876464844,0.499938964844,0.022232055664,0.069732666016,0.008804321289
-0.091644287109,0.287429809570,0.499938964844,0.016250610352,0.117675781250,-0.004562377930
-0.107009887695,0.210083007813,0.499938964844,0.023590087891,0.133270263672,-0.023513793945
-0.078170776367,0.043991088867,0.452941894531,0.027297973633,0.135437011719,-0.048599243164
-0.077621459961,-0.041259765625,0.424102783203,0.028015136719,0.139862060547,-0.039337158203
-0.111328125000,-0.016830444336,0.345352172852,0.036285400391,0.148208618164,-0.027069091797
-0.158172607422,-0.019210815430,0.172958374023,0.044738769531,0.155670166016,-0.024856567383
-0.160491943359,-0.049972534180,0.103973388672,0.043731689453,0.153778076172,-0.023147583008
-0.134536743164,-0.128768920898,-0.006195068359,0.046386718750,0.153106689453,-0.017959594727
-0.123046875000,-0.143539428711,-0.067123413086,0.043411254883,0.149810791016,-0.008438110352
-0.088912963867,-0.151489257813,-0.158645629883,0.024124145508,0.130584716797,0.010925292969
-0.066390991211,-0.177734375000,-0.197189331055,0.020523071289,0.117584228516,0.016555786133
-0.037765502930,-0.195434570313,-0.207122802734,0.018707275391,0.082061767578,0.032379150391
-0.033294677734,-0.174362182617,-0.204727172852,0.013076782227,0.066665649414,0.043411254883
-0.022018432617,-0.106552124023,-0.179885864258,-0.005767822266,0.039642333984,0.057205200195
-0.020858764648,-0.069107055664,-0.151824951172,-0.011932373047,0.028259277344,0.058486938477
-0.010604858398,-0.018188476563,-0.125274658203,-0.007125854492,0.012451171875,0.052795410156
-0.006195068359,-0.008499145508,-0.111907958984,-0.000946044922,0.007385253906,0.047286987305
-0.002471923828,0.024673461914,-0.096450805664,0.000595092773,0.006790161133,0.038101196289
-0.007858276367,0.041198730469,-0.096649169922,0.001373291016,0.005752563477,0.030944824219
-0.000885009766,0.040115356445,-0.097137451172,0.004409790039,0.000274658203,0.014511108398
0.007110595703,0.027267456055,-0.084945678711,0.000045776367,0.002105712891,0.013824462891
0.010498046875,0.027969360352,-0.085617065430,-0.005004882813,0.004608154297,0.015335083008
0.015991210938,0.021987915039,-0.077529907227,-0.006881713867,0.001892089844,0.014465332031
0.018692016602,0.022705078125,-0.081909179688,-0.006500244141,0.001068115234,0.014312744141
0.026519775391,0.027969360352,-0.085922241211,-0.010818481445,0.000793457031,0.012054443359
0.029739379883,0.030410766602,-0.087722778320,-0.011062622070,0.000411987305,0.010833740234
0.039627075195,0.019409179688,-0.092773437500,-0.005142211914,-0.001312255859,0.007675170898
0.044464111328,0.016738891602,-0.089584350586,-0.003417968750,-0.003158569336,0.006912231445
0.053176879883,0.015625000000,-0.087295532227,-0.002151489258,-0.006805419922,0.007064819336
0.059127807617,0.009216308594,-0.081390380859,-0.002182006836,-0.008834838867,0.007186889648
0.064544677734,0.000076293945,-0.058746337891,-0.003036499023,-0.012039184570,0.008926391602
0.073181152344,0.002258300781,-0.049255371094,-0.003463745117,-0.012405395508,0.009963989258
0.076721191406,0.006973266602,-0.037948608398,-0.004898071289,-0.011093139648,0.011749267578
0.082519531250,0.022018432617,-0.025527954102,-0.004272460938,-0.009277343750,0.011825561523
0.084991455078,0.028091430664,-0.026565551758,-0.003540039063,-0.005691528320,0.010543823242
0.087799072266,0.036682128906,-0.027496337891,-0.002456665039,-0.003952026367,0.009048461914
0.090911865234,0.036376953125,-0.028518676758,-0.000869750977,-0.002227783203,0.007461547852
0.092971801758,0.036621093750,-0.037551879883,0.002548217773,0.000854492188,0.004913330078
0.094345092773,0.035461425781,-0.043746948242,0.003860473633,0.002029418945,0.003982543945
0.097946166992,0.028472900391,-0.047775268555,0.005035400391,0.002639770508,0.002731323242
0.100158691406,0.023834228516,-0.044403076172,0.004089355469,0.002655029297,0.002731323242
0.102340698242,0.023696899414,-0.042694091797,0.002929687500,0.003433227539,0.003814697266
0.102294921875,0.027847290039,-0.047195434570,0.002151489258,0.004241943359,0.004623413086
0.099761962891,0.037765502930,-0.053482055664,-0.000518798828,0.005081176758,0.004684448242
0.099395751953,0.041366577148,-0.060165405273,-0.001144409180,0.005569458008,0.004165649414
0.098892211914,0.043670654297,-0.066345214844,-0.003219604492,0.005401611328,0.002410888672
0.095626831055,0.041854858398,-0.072662353516,-0.003082275391,0.005172729492,0.001388549805
0.094360351563,0.041336059570,-0.077026367188,-0.002502441406,0.004882812500,-0.003356933594
0.097366333008,0.036743164063,-0.082626342773,-0.001831054688,0.003723144531,-0.000732421875
0.099121093750,0.032287597656,-0.077087402344,-0.001419067383,0.002761840820,-0.001159667969
0.098587036133,0.025894165039,-0.069549560547,0.000640869141,0.002304077148,-0.001403808594
0.096145629883,0.028198242188,-0.070373535156,0.001480102539,0.002517700195,-0.001358032227
0.091079711914,0.032531738281,-0.075088500977,0.003662109375,0.002258300781,-0.001998901367
0.089736938477,0.033004760742,-0.078720092773,0.004409790039,0.001922607422,-0.002563476563
0.087463378906,0.034957885742,-0.085906982422,0.006134033203,0.000595092773,-0.004058837891
0.085906982422,0.035003662109,-0.090637207031,0.006896972656,-0.000259399414,-0.005340576172
0.085708618164,0.038024902344,-0.098556518555,0.005035400391,-0.002059936523,-0.005859375000
0.085601806641,0.037460327148,-0.099060058594,0.003616333008,-0.003509521484,-0.006652832031
0.086318969727,0.029541015625,-0.093643188477,0.002105712891,-0.006576538086,-0.008758544922
0.089294433594,0.026336669922,-0.090118408203,0.002182006836,-0.007843017578,-0.009582519531
0.089675903320,0.021942138672,-0.085906982422,0.000808715820,-0.010055541992,-0.009948730469
0.090133666992,0.018112182617,-0.080459594727,0.000900268555,-0.010848999023,-0.009918212891
0.090560913086,0.016769409180,-0.079605102539,0.001037597656,-0.011917114258,-0.010314941406
0.088699340820,0.019805908203,-0.080444335938,0.001129150391,-0.012069702148,-0.010330200195
0.088500976563,0.022354125977,-0.078765869141,0.001129150391,-0.012863159180,-0.010498046875
0.090805053711,0.019653320313,-0.081512451172,0.001281738281,-0.013977050781,-0.011657714844
0.088760375977,0.016754150391,-0.084289550781,0.000274658203,-0.014465332031,-0.012237548828
0.093536376953,0.008590698242,-0.076019287109,0.001800537109,-0.016876220703,-0.014694213867
0.093154907227,0.007324218750,-0.070739746094,0.001907348633,-0.017990112305,-0.015106201172
0.092575073242,0.002212524414,-0.062606811523,0.000747680664,-0.020233154297,-0.015701293945
0.093627929688,-0.001708984375,-0.055145263672,0.000381469727,-0.021286010742,-0.015441894531
0.092102050781,-0.007904052734,-0.051437377930,0.000747680664,-0.021682739258,-0.015808105469
0.090042114258,-0.002944946289,-0.052612304688,0.000869750977,-0.021713256836,-0.015213012695
0.089218139648,-0.001586914063,-0.064361572266,0.001205444336,-0.022018432617,-0.016021728516
0.090423583984,-0.009902954102,-0.069030761719,0.002029418945,-0.023162841797,-0.016998291016
0.090927124023,-0.022506713867,-0.058563232422,0.003265380859,-0.028686523438,-0.017700195313
0.091415405273,-0.025848388672,-0.047805786133,0.003417968750,-0.031494140625,-0.017639160156
0.086502075195,-0.027481079102,-0.031372070313,0.005050659180,-0.035430908203,-0.017608642578
0.087585449219,-0.027832031250,-0.024826049805,0.006179809570,-0.036773681641,-0.017684936523
0.086532592773,-0.031127929688,-0.020370483398,0.007080078125,-0.038085937500,-0.018066406250
0.083099365234,-0.030517578125,-0.016662597656,0.007965087891,-0.038085937500,-0.018402099609
0.080520629883,-0.030303955078,-0.022903442383,0.009613037109,-0.037719726563,-0.020111083984
0.078125000000,-0.036956787109,-0.035064697266,0.012298583984,-0.037582397461,-0.019897460938
0.077331542969,-0.040115356445,-0.039672851563,0.011917114258,-0.042373657227,-0.020568847656
0.074325561523,-0.051361083984,-0.034820556641,0.008361816406,-0.044769287109,-0.020523071289
0.066452026367,-0.058700561523,-0.034729003906,0.000259399414,-0.045715332031,-0.020828247070
0.063110351563,-0.075851440430,-0.006378173828,-0.005889892578,-0.054351806641,-0.016952514648
0.061218261719,-0.080459594727,0.013687133789,-0.008224487305,-0.057968139648,-0.014633178711
0.057723999023,-0.075912475586,0.047668457031,-0.014648437500,-0.061981201172,-0.008483886719
0.055740356445,-0.073715209961,0.066909790039,-0.018096923828,-0.062927246094,-0.006378173828
0.055038452148,-0.063629150391,0.099014282227,-0.023040771484,-0.062026977539,-0.002975463867
0.054412841797,-0.057250976563,0.104324340820,-0.023208618164,-0.059707641602,-0.000930786133
0.049270629883,-0.038146972656,0.118057250977,-0.018295288086,-0.054611206055,0.000930786133
0.046798706055,-0.041198730469,0.106094360352,-0.011627197266,-0.051162719727,-0.000289916992
0.045227050781,-0.050704956055,0.102111816406,-0.006134033203,-0.049591064453,-0.000900268555
0.043273925781,-0.058395385742,0.112335205078,-0.010437011719,-0.050750732422,-0.000488281250
0.037109375000,-0.053543090820,0.143280029297,-0.018859863281,-0.051956176758,0.003738403320
0.034332275391,-0.049911499023,0.148651123047,-0.019866943359,-0.050872802734,0.005783081055
0.034622192383,-0.046417236328,0.177841186523,-0.023925781250,-0.050506591797,0.009216308594
0.036087036133,-0.038192749023,0.207092285156,-0.024002075195,-0.049728393555,0.010986328125

0.019485473633,0.012451171875,0.179962158203,0.002426147461,-0.001098632813,0.000778198242
0.017684936523,-0.021331787109,0.270645141602,0.009841918945,0.000549316406,-0.001312255859
0.108810424805,-0.061264038086,0.499938964844,0.029373168945,0.030807495117,-0.004562377930
0.069137573242,-0.025024414063,0.499938964844,0.001220703125,0.078948974609,0.009460449219
0.012573242188,0.102813720703,0.499938964844,-0.003082275391,0.140853881836,0.013961791992
-0.097015380859,0.230850219727,0.475128173828,0.009262084961,0.166213989258,-0.002700805664
-0.109985351563,0.122314453125,0.367370605469,0.010940551758,0.173065185547,-0.037872314453
-0.107101440430,-0.019439697266,0.159881591797,0.024642944336,0.169097900391,-0.040176391602
-0.099716186523,0.007217407227,0.034500122070,0.030853271484,0.163833618164,-0.035339355469
-0.069946289063,-0.008438110352,-0.101104736328,0.018936157227,0.132537841797,-0.025070190430
-0.041900634766,-0.037567138672,-0.072265625000,0.014450073242,0.115417480469,-0.022171020508
0.000427246094,-0.057144165039,-0.068389892578,0.026580810547,0.093826293945,-0.020462036133
0.010070800781,-0.082305908203,-0.095230102539,0.022811889648,0.082992553711,-0.017730712891
0.023849487305,-0.108383178711,-0.043273925781,-0.001647949219,0.058761596680,0.003509521484
0.038192749023,-0.103530883789,-0.119934082031,-0.008850097656,0.081207275391,0.015853881836
0.032058715820,-0.070693969727,-0.134658813477,-0.015274047852,0.065658569336,0.025924682617
0.034118652344,-0.070953369141,-0.121093750000,-0.009475708008,0.051086425781,0.025161743164
0.043685913086,-0.042938232422,-0.097305297852,-0.009826660156,0.028518676758,0.029067993164
0.052856445313,-0.027328491211,-0.076354980469,-0.007949829102,0.019195556641,0.027923583984
0.060043334961,0.002243041992,-0.050674438477,-0.006744384766,0.006378173828,0.025375366211
0.066192626953,0.010360717773,-0.025009155273,-0.006851196289,0.004745483398,0.023818969727
0.077590942383,0.019653320313,-0.010559082031,-0.006668090820,0.011428833008,0.023468017578
0.079895019531,0.027267456055,-0.025543212891,0.002456665039,0.019470214844,0.016601562500
0.083877563477,0.020141601563,-0.039215087891,0.005752563477,0.018356323242,0.012252807617
0.083328247070,0.014236450195,-0.051635742188,0.002975463867,0.014633178711,0.010360717773
0.084197998047,0.012313842773,-0.052841186523,0.004776000977,0.013061523438,0.008575439453
0.085311889648,0.016754150391,-0.046417236328,0.005767822266,0.010559082031,0.006988525391
0.086914062500,0.015502929688,-0.040649414063,0.005279541016,0.009811401367,0.005752563477
0.087753295898,0.013015747070,-0.040756225586,0.004150390625,0.008407592773,0.004379272461
0.085617065430,0.016433715820,-0.046859741211,0.002609252930,0.008728027344,0.005020141602
0.084777832031,0.016632080078,-0.056182861328,0.002075195313,0.009201049805,0.005432128906
0.086975097656,0.016235351563,-0.054077148438,0.002548217773,0.007141113281,0.004989624023
0.085693359375,0.019454956055,-0.051528930664,0.002426147461,0.006072998047,0.004867553711
0.088439941406,0.021133422852,-0.057617187500,0.001739501953,0.003952026367,0.006134033203
0.088714599609,0.021621704102,-0.058731079102,0.000762939453,0.003082275391,0.006973266602
0.092422485352,0.021560668945,-0.058090209961,0.000015258789,0.001312255859,0.007186889648
0.093887329102,0.021240234375,-0.057418823242,0.000152587891,0.000350952148,0.007034301758
0.095703125000,0.022720336914,-0.053298950195,0.000778198242,-0.001083374023,0.006103515625
0.100173950195,0.018646240234,-0.046463012695,0.001876831055,-0.001342773438,0.005584716797
0.102630615234,0.016418457031,-0.037506103516,0.002426147461,-0.000869750977,0.005462646484
0.104476928711,0.019836425781,-0.038482666016,0.001617431641,-0.000183105469,0.006271362305
0.102890014648,0.023147583008,-0.042922973633,-0.000183105469,0.000427246094,0.007049560547
0.103012084961,0.028976440430,-0.042831420898,-0.001113891602,0.000854492188,0.006469726563
0.102767944336,0.033432006836,-0.042739868164,0.000274658203,0.001358032227,0.005355834961
0.104415893555,0.028427124023,-0.044692993164,0.003021240234,0.002639770508,0.002243041992
0.104400634766,0.024139404297,-0.047134399414,0.004058837891,0.003036499023,0.001373291016
0.103256225586,0.021697998047,-0.052749633789,0.003936767578,0.003326416016,0.001022338867
0.102401733398,0.019744873047,-0.055923461914,0.003280639648,0.003067016602,0.001129150391
0.101837158203,0.025100708008,-0.061264038086,0.002395629883,0.001770019531,0.001617431641
0.101501464844,0.028381347656,-0.061645507813,0.001876831055,0.000793457031,0.001632690430
0.102386474609,0.027160644531,-0.059707641602,0.001083374023,0.000030517578,0.001190185547
0.105178833008,0.025314331055,-0.048202514648,0.000473022461,-0.000762939453,0.001434326172
0.105590820313,0.028640747070,-0.046554565430,0.000350952148,-0.000640869141,0.001876831055
0.106491088867,0.032775878906,-0.048385620117,0.000335693359,-0.000061035156,0.001205444336
0.106903076172,0.032867431641,-0.051361083984,0.000366210937,0.000167846680,0.000625610352
0.107772827148,0.030441284180,-0.054351806641,0.000839233398,-0.000076293945,-0.000534057617
0.108612060547,0.028457641602,-0.055480957031,0.001220703125,-0.000335693359,-0.000930786133
0.111297607422,0.025588989258,-0.051971435547,0.001663208008,-0.001129150391,-0.001068115234
0.111740112305,0.026840209961,-0.052383422852,0.001556396484,-0.001403808594,-0.000976562500
0.112060546875,0.025756835938,-0.048431396484,0.001541137695,-0.002182006836,-0.000991821289
0.112945556641,0.023681640625,-0.047836303711,0.001266479492,-0.002609252930,-0.000946044922
0.114685058594,0.022811889648,-0.047698974609,0.001220703125,-0.003051757813,-0.000885009766
0.116302490234,0.020492553711,-0.040634155273,0.001144409180,-0.002990722656,-0.000747680664
0.116012573242,0.024276733398,-0.040435791016,0.001235961914,-0.002609252930,-0.000579833984
0.116394042969,0.022430419922,-0.043945312500,0.001831054688,-0.002182006836,-0.001098632813
0.116531372070,0.021423339844,-0.043106079102,0.001434326172,-0.002166748047,-0.001129150391
0.116485595703,0.022064208984,-0.043380737305,0.001129150391,-0.002166748047,-0.001281738281
0.116455078125,0.021026611328,-0.043975830078,0.001785278320,-0.002258300781,-0.001464843750
0.115875244141,0.020263671875,-0.045028686523,0.001876831055,-0.002761840820,-0.001403808594
0.118728637695,0.020553588867,-0.042617797852,0.001632690430,-0.003280639648,-0.001251220703
0.118286132813,0.017990112305,-0.037384033203,0.000869750977,-0.003738403320,-0.000976562500
0.117980957031,0.019104003906,-0.035995483398,0.001037597656,-0.003753662109,-0.000747680664
0.116210937500,0.021087646484,-0.039871215820,0.000991821289,-0.003692626953,-0.000442504883
0.115707397461,0.020416259766,-0.039764404297,0.000473022461,-0.004074096680,-0.000289916992
0.117065429688,0.020202636719,-0.033645629883,0.000183105469,-0.004440307617,-0.000381469727
0.117279052734,0.020553588867,-0.032516479492,0.000076293945,-0.004165649414,-0.000213623047
0.116424560547,0.024703979492,-0.031784057617,0.000152587891,-0.003433227539,-0.000595092773
0.115447998047,0.026535034180,-0.036010742188,0.000778198242,-0.002975463867,-0.001129150391
0.115356445313,0.025604248047,-0.037139892578,0.001129150391,-0.002746582031,-0.002288818359
0.115997314453,0.019790649414,-0.036071777344,0.001968383789,-0.002639770508,-0.002700805664
0.116424560547,0.018325805664,-0.036590576172,0.002197265625,-0.002487182617,-0.002822875977
0.116973876953,0.015136718750,-0.038696289063,0.002304077148,-0.002716064453,-0.002456665039
0.117767333984,0.014770507813,-0.035552978516,0.001922607422,-0.003082275391,-0.001998901367
0.117660522461,0.016357421875,-0.035217285156,0.001251220703,-0.003402709961,-0.001220703125
0.117660522461,0.016067504883,-0.037567138672,0.001251220703,-0.003601074219,-0.001083374023
0.115417480469,0.016845703125,-0.037780761719,0.000457763672,-0.004486083984,-0.000701904297
0.118270874023,0.018524169922,-0.035797119141,0.000259399414,-0.004867553711,-0.000457763672
0.117889404297,0.022247314453,-0.030685424805,-0.000381469727,-0.005096435547,-0.000671386719
0.117385864258,0.023788452148,-0.032012939453,0.000427246094,-0.005004882813,-0.000991821289
0.116271972656,0.027755737305,-0.033142089844,0.001174926758,-0.004928588867,-0.001754760742
0.115264892578,0.027755737305,-0.033920288086,0.001571655273,-0.004943847656,-0.002456665039
0.115280151367,0.026947021484,-0.033584594727,0.002822875977,-0.005279541016,-0.003952026367
0.115386962891,0.021865844727,-0.030715942383,0.003051757813,-0.005508422852,-0.004241943359
0.114166259766,0.023818969727,-0.032135009766,0.003692626953,-0.005462646484,-0.004806518555
0.112487792969,0.022552490234,-0.037002563477,0.004135131836,-0.005767822266,-0.005722045898
0.111053466797,0.022033691406,-0.037826538086,0.003921508789,-0.006042480469,-0.005630493164
0.108398437500,0.018661499023,-0.039093017578,0.003997802734,-0.007308959961,-0.005584716797
0.107452392578,0.017242431641,-0.042037963867,0.004287719727,-0.007934570313,-0.005645751953
0.103851318359,0.019638061523,-0.042709350586,0.003219604492,-0.009613037109,-0.005432128906
0.102218627930,0.021469116211,-0.044357299805,0.003173828125,-0.010452270508,-0.005554199219
0.098815917969,0.019897460938,-0.049377441406,0.003677368164,-0.012100219727,-0.006896972656
0.098083496094,0.018203735352,-0.050079345703,0.004058837891,-0.013259887695,-0.007537841797
0.097518920898,0.011627197266,-0.040527343750,0.003387451172,-0.016021728516,-0.008178710938
0.097885131836,0.007171630859,-0.035919189453,0.002929687500,-0.017028808594,-0.008270263672

0.004486083984,-0.047760009766,0.202255249023,-0.004455566406,-0.005477905273,0.003128051758
0.005920410156,-0.079269409180,0.333908081055,-0.004241943359,-0.000900268555,0.006027221680
0.047012329102,-0.068145751953,0.499938964844,-0.003952026367,0.041656494141,0.000228881836
0.024429321289,0.028747558594,0.499938964844,0.015121459961,0.073730468750,0.001342773438
-0.061538696289,0.329086303711,0.499938964844,0.027221679688,0.144943237305,0.016586303711
-0.143600463867,0.451034545898,0.499938964844,0.027481079102,0.172332763672,0.003021240234
-0.191055297852,0.330047607422,0.499938964844,0.037994384766,0.197174072266,-0.056686401367
-0.202270507813,-0.108825683594,0.359313964844,0.047393798828,0.192489624023,-0.061111450195
-0.219131469727,-0.093307495117,0.267852783203,0.057556152344,0.191970825195,-0.032165527344
-0.236526489258,-0.001052856445,0.078948974609,0.064697265625,0.191131591797,-0.024444580078
-0.217559814453,-0.030502319336,0.013122558594,0.052551269531,0.183837890625,-0.021713256836
-0.152999877930,-0.118347167969,-0.046875000000,0.037078857422,0.154785156250,-0.014709472656
-0.133682250977,-0.130981445313,-0.068115234375,0.038635253906,0.138107299805,-0.006683349609
-0.105529785156,-0.145339965820,-0.138061523438,0.035690307617,0.107681274414,0.016647338867
-0.082229614258,-0.158523559570,-0.123016357422,0.029388427734,0.093002319336,0.033935546875
-0.056091308594,-0.177398681641,-0.173309326172,0.020538330078,0.086608886719,0.047271728516
-0.054672241211,-0.141143798828,-0.182266235352,0.012512207031,0.072479248047,0.058624267578
-0.038818359375,-0.068008422852,-0.169586181641,-0.009338378906,0.045120239258,0.069076538086
-0.030807495117,-0.026687622070,-0.143875122070,-0.017532348633,0.033142089844,0.070159912109
-0.013442993164,0.001266479492,-0.075592041016,-0.017745971680,0.019134521484,0.059509277344
-0.010742187500,0.015045166016,-0.052810668945,-0.016342163086,0.017379760742,0.056594848633
-0.011993408203,0.033111572266,-0.064361572266,-0.010406494141,0.024444580078,0.043762207031
-0.012603759766,0.031280517578,-0.080657958984,-0.005126953125,0.027862548828,0.035903930664
-0.014511108398,0.025497436523,-0.111846923828,0.002014160156,0.028671264648,0.022918701172
-0.017059326172,0.011764526367,-0.123733520508,0.003295898438,0.028686523438,0.018585205078
-0.017944335938,0.007476806641,-0.140731811523,0.005645751953,0.028182983398,0.015045166016
-0.020294189453,0.012237548828,-0.173828125000,0.006622314453,0.025741577148,0.015396118164
-0.018661499023,0.011703491211,-0.185272216797,0.005981445313,0.021591186523,0.016662597656
-0.012725830078,0.010101318359,-0.177001953125,0.000595092773,0.009277343750,0.019531250000
-0.008178710938,0.016296386719,-0.166107177734,-0.001556396484,0.004364013672,0.021362304688
0.002136230469,0.027984619141,-0.143310546875,-0.004196166992,-0.001449584961,0.020614624023
0.005599975586,0.037155151367,-0.139770507813,-0.005722045898,-0.003234863281,0.020355224609
0.013046264648,0.049606323242,-0.126480102539,-0.007080078125,-0.006835937500,0.018447875977
0.017501831055,0.052795410156,-0.120422363281,-0.005935668945,-0.008132934570,0.016052246094
0.025833129883,0.057037353516,-0.106903076172,-0.003753662109,-0.009216308594,0.011352539063
0.031539916992,0.052749633789,-0.096237182617,-0.001632690430,-0.009262084961,0.008697509766
0.042388916016,0.036361694336,-0.083724975586,0.003036499023,-0.007446289063,0.004302978516
0.045867919922,0.029205322266,-0.082122802734,0.003540039063,-0.005981445313,0.003585815430
0.049209594727,0.027114868164,-0.083389282227,0.002670288086,-0.003128051758,0.003433227539
0.052810668945,0.023071289063,-0.102035522461,0.002624511719,-0.002197265625,0.004074096680
0.053466796875,0.022933959961,-0.110244750977,0.001174926758,-0.002243041992,0.005416870117
0.054260253906,0.027465820313,-0.111206054688,-0.001739501953,-0.004058837891,0.005706787109
0.054824829102,0.025711059570,-0.109466552734,-0.001998901367,-0.005081176758,0.005538940430
0.055480957031,0.033279418945,-0.106399536133,-0.003067016602,-0.006576538086,0.005920410156
0.054855346680,0.040908813477,-0.106384277344,-0.003814697266,-0.006912231445,0.005874633789
0.057586669922,0.040130615234,-0.102249145508,-0.003555297852,-0.006958007813,0.003387451172
0.060607910156,0.033706665039,-0.090347290039,-0.002319335938,-0.006790161133,0.002151489258
0.065994262695,0.023574829102,-0.088577270508,0.001846313477,-0.004394531250,0.000961303711
0.065704345703,0.025268554688,-0.093032836914,0.001495361328,-0.003234863281,0.001144409180
0.067153930664,0.029235839844,-0.100067138672,0.001480102539,-0.002136230469,0.000991821289
0.064895629883,0.029800415039,-0.100875854492,0.002227783203,-0.002334594727,0.000656127930
0.069122314453,0.028579711914,-0.096435546875,0.002212524414,-0.003128051758,-0.000137329102
0.069793701172,0.031005859375,-0.096191406250,0.002502441406,-0.003128051758,-0.000289916992
0.070510864258,0.038314819336,-0.098495483398,0.001617431641,-0.002929687500,-0.000823974609
0.070510864258,0.035324096680,-0.097808837891,0.000991821289,-0.002761840820,-0.001312255859
0.071273803711,0.031265258789,-0.096527099609,0.001052856445,-0.002166748047,-0.002426147461
0.075134277344,0.023193359375,-0.092727661133,0.001007080078,-0.001647949219,-0.002502441406
0.075729370117,0.024810791016,-0.096771240234,0.001861572266,-0.000549316406,-0.002426147461
0.073959350586,0.024505615234,-0.106399536133,0.001892089844,-0.000442504883,-0.002883911133
0.074264526367,0.022155761719,-0.107192993164,0.001266479492,-0.000900268555,-0.002883911133
0.075195312500,0.025787353516,-0.107467651367,0.000106811523,-0.002059936523,-0.002700805664
0.073928833008,0.025787353516,-0.111648559570,-0.000747680664,-0.002304077148,-0.002822875977
0.074798583984,0.028427124023,-0.108932495117,-0.001892089844,-0.003860473633,-0.003143310547
0.074539184570,0.027679443359,-0.108306884766,-0.002059936523,-0.004425048828,-0.003479003906
0.076385498047,0.023956298828,-0.104415893555,-0.002502441406,-0.005599975586,-0.004226684570
0.076614379883,0.018463134766,-0.100357055664,-0.002746582031,-0.006011962891,-0.004409790039
0.075744628906,0.019454956055,-0.100479125977,-0.002929687500,-0.005966186523,-0.004150390625
0.075286865234,0.018417358398,-0.104812622070,-0.003952026367,-0.005905151367,-0.004241943359
0.075988769531,0.016921997070,-0.100051879883,-0.006256103516,-0.007751464844,-0.003875732422
0.077499389648,0.015792846680,-0.098281860352,-0.006240844727,-0.008438110352,-0.003707885742
0.079406738281,0.016891479492,-0.094635009766,-0.004150390625,-0.009719848633,-0.003219604492
0.077575683594,0.019577026367,-0.096862792969,-0.003738403320,-0.009719848633,-0.003173828125
0.076766967773,0.019271850586,-0.103759765625,-0.002136230469,-0.010620117188,-0.004043579102
0.075775146484,0.022155761719,-0.099472045898,-0.002166748047,-0.011657714844,-0.004379272461
0.073776245117,0.021041870117,-0.102416992188,-0.001892089844,-0.012390136719,-0.005157470703
0.073760986328,0.019073486328,-0.103118896484,-0.001953125000,-0.013092041016,-0.005691528320
0.074966430664,0.020217895508,-0.106536865234,-0.001220703125,-0.014602661133,-0.006576538086
0.075668334961,0.019897460938,-0.107284545898,-0.000885009766,-0.015640258789,-0.007202148438
0.074310302734,0.019882202148,-0.104110717773,-0.000244140625,-0.018432617188,-0.008392333984
0.075653076172,0.013885498047,-0.097930908203,0.000457763672,-0.019439697266,-0.008956909180
0.075851440430,0.011123657227,-0.094879150391,0.001266479492,-0.021118164063,-0.009750366211
0.078567504883,0.006332397461,-0.087051391602,0.002105712891,-0.021514892578,-0.009780883789
0.080596923828,0.007385253906,-0.087890625000,0.003189086914,-0.021453857422,-0.010009765625
0.083770751953,0.005355834961,-0.085830688477,0.004150390625,-0.022293090820,-0.010101318359
0.085266113281,0.004287719727,-0.080917358398,0.004211425781,-0.023178100586,-0.010208129883
0.088088989258,0.002288818359,-0.072677612305,0.005050659180,-0.024307250977,-0.010513305664
0.090408325195,-0.000137329102,-0.074737548828,0.004837036133,-0.024566650391,-0.010574340820
0.090621948242,-0.001678466797,-0.067718505859,0.003021240234,-0.026260375977,-0.009826660156
0.092376708984,-0.003128051758,-0.063995361328,0.003097534180,-0.027023315430,-0.009674072266
0.093582153320,-0.001052856445,-0.056991577148,0.002670288086,-0.028121948242,-0.009277343750
0.095245361328,-0.002578735352,-0.052398681641,0.002868652344,-0.028350830078,-0.009552001953
0.098358154297,-0.005874633789,-0.040451049805,0.004119873047,-0.028274536133,-0.010391235352
0.100631713867,-0.009429931641,-0.035812377930,0.005310058594,-0.027664184570,-0.010864257813
0.103195190430,-0.014678955078,-0.034515380859,0.007583618164,-0.026626586914,-0.011413574219
0.104263305664,-0.016647338867,-0.033996582031,0.007736206055,-0.026290893555,-0.011245727539
0.101852416992,-0.014572143555,-0.032440185547,0.008621215820,-0.026382446289,-0.010833740234
0.100311279297,-0.012725830078,-0.032058715820,0.008270263672,-0.026428222656,-0.010681152344
0.098815917969,-0.013031005859,-0.034469604492,0.006805419922,-0.026580810547,-0.010635375977
0.096374511719,-0.012527465820,-0.033798217773,0.006164550781,-0.026931762695,-0.010726928711
0.095214843750,-0.013320922852,-0.033233642578,0.006576538086,-0.027755737305,-0.011581420898
0.094192504883,-0.017532348633,-0.032836914063,0.006423950195,-0.028213500977,-0.011886596680
0.094116210938,-0.019271850586,-0.025741577148,0.007232666016,-0.029098510742,-0.012939453125
0.092376708984,-0.028228759766,-0.027557373047,0.007415771484,-0.029861450195,-0.013107299805
0.092132568359,-0.034408569336,-0.022155761719,0.007385253906,-0.031234741211,-0.013015747070

0.007904052734,-0.054672241211,0.241622924805,-0.000946044922,-0.009506225586,0.010208129883
0.012695312500,0.024307250977,0.406433105469,-0.008193969727,-0.002883911133,0.009582519531
0.121490478516,0.285049438477,0.499938964844,-0.033035278320,0.040466308594,-0.023559570313
0.055526733398,0.378387451172,0.499938964844,-0.015075683594,0.086242675781,-0.037567138672
-0.218719482422,0.132797241211,0.499938964844,0.064010620117,0.181579589844,-0.060394287109
-0.273422241211,0.065399169922,0.499679565430,0.068893432617,0.199844360352,-0.060775756836
-0.304244995117,0.065155029297,0.357070922852,0.069778442383,0.213439941406,-0.048294067383
-0.297058105469,0.022232055664,0.110168457031,0.059204101563,0.206008911133,-0.043334960938
-0.263671875000,-0.042022705078,0.086944580078,0.047836303711,0.179290771484,-0.034347534180
-0.242172241211,-0.062561035156,0.064514160156,0.042404174805,0.173751831055,-0.027709960938
-0.240417480469,-0.064849853516,-0.016510009766,0.038970947266,0.171997070313,-0.020401000977
-0.166687011719,-0.144409179688,-0.111801147461,0.023895263672,0.154739379883,-0.006103515625
-0.143569946289,-0.173965454102,-0.126907348633,0.016830444336,0.145324707031,0.002914428711
-0.103012084961,-0.165130615234,-0.143005371094,0.016510009766,0.120880126953,0.020767211914
-0.084197998047,-0.177780151367,-0.152221679688,0.016921997070,0.106369018555,0.025955200195
-0.052185058594,-0.133361816406,-0.128311157227,0.013351440430,0.072433471680,0.039611816406
-0.039398193359,-0.092132568359,-0.105010986328,0.009124755859,0.058456420898,0.045974731445
-0.019256591797,-0.006301879883,-0.074691772461,-0.007156372070,0.043991088867,0.055450439453
-0.013702392578,0.030563354492,-0.066909790039,-0.011779785156,0.040267944336,0.053421020508
-0.010528564453,0.038101196289,-0.041488647461,-0.005294799805,0.037643432617,0.038955688477
-0.012725830078,0.023086547852,-0.060775756836,0.003356933594,0.040176391602,0.032043457031
-0.019317626953,-0.001342773438,-0.108139038086,0.006591796875,0.043807983398,0.025024414063
-0.021148681641,-0.009674072266,-0.127227783203,0.006454467773,0.043395996094,0.021804809570
-0.016830444336,-0.018081665039,-0.142745971680,0.011505126953,0.037734985352,0.018142700195
-0.020095825195,-0.018188476563,-0.150588989258,0.013870239258,0.035125732422,0.017700195313
-0.017791748047,-0.023757934570,-0.167770385742,0.010482788086,0.027984619141,0.018585205078
-0.015823364258,-0.020324707031,-0.169586181641,0.004089355469,0.022994995117,0.020462036133
-0.011154174805,-0.006958007813,-0.159149169922,0.000274658203,0.015640258789,0.021102905273
-0.003433227539,0.010025024414,-0.153121948242,0.000946044922,0.012771606445,0.020477294922
0.002090454102,0.016571044922,-0.147491455078,-0.000030517578,0.010192871094,0.020095825195
-0.003128051758,0.032119750977,-0.137283325195,-0.001312255859,0.007232666016,0.018127441406
0.005279541016,0.030624389648,-0.118423461914,-0.001678466797,0.005752563477,0.014312744141
0.006362915039,0.030929565430,-0.121490478516,0.003967285156,0.007446289063,0.008972167969
0.007980346680,0.022460937500,-0.131210327148,0.006301879883,0.008331298828,0.006805419922
0.013748168945,0.014480590820,-0.130187988281,0.008514404297,0.006820678711,0.003890991211
0.016601562500,0.011108398438,-0.130569458008,0.008743286133,0.006225585938,0.003402709961
0.019317626953,0.006713867188,-0.123687744141,0.003433227539,0.005310058594,0.004379272461
0.022247314453,0.008056640625,-0.126190185547,0.001358032227,0.005416870117,0.005172729492
0.019515991211,0.011505126953,-0.132583618164,-0.002822875977,0.004989624023,0.006347656250
0.019577026367,0.016433715820,-0.132431030273,-0.004699707031,0.003677368164,0.006317138672
0.017700195313,0.023498535156,-0.124725341797,-0.004409790039,0.002761840820,0.003936767578
0.019485473633,0.028808593750,-0.126174926758,-0.002258300781,0.001724243164,0.005386352539
0.020675659180,0.021026611328,-0.125106811523,-0.002532958984,0.001861572266,0.003494262695
0.025558471680,0.007858276367,-0.133728027344,-0.001434326172,0.002685546875,0.002059936523
