ax,ay,az,gx,gy,gz
-0.032760620117,-0.260559082031,0.149734497070,-0.008544921875,-0.000274658203,-0.001571655273
-0.018936157227,-0.102798461914,0.112808227539,-0.026458740234,0.001632690430,0.004257202148
-0.027877807617,0.025817871094,0.113067626953,-0.023574829102,-0.003311157227,-0.023620605469
-0.009170532227,0.009979248047,0.127807617188,-0.022506713867,-0.005172729492,-0.028762817383
-0.002182006836,0.006240844727,0.188018798828,-0.013320922852,-0.000701904297,-0.008468627930
-0.010650634766,0.046020507813,0.238357543945,-0.025146484375,0.007369995117,0.000015258789
-0.003387451172,0.040771484375,0.272033691406,-0.020935058594,0.028732299805,-0.000152587891
-0.004867553711,0.029067993164,0.288711547852,-0.015136718750,0.038208007813,-0.002014160156
-0.016723632813,0.021331787109,0.328109741211,-0.022399902344,0.062484741211,-0.000762939453
-0.008956909180,0.003128051758,0.299362182617,-0.030487060547,0.074829101563,-0.000900268555
-0.003860473633,0.000000000000,0.257675170898,-0.019866943359,0.100708007813,-0.000183105469
0.006179809570,0.016738891602,0.187133789063,-0.001312255859,0.110397338867,0.004394531250
0.025939941406,0.009719848633,0.274948120117,0.013977050781,0.102951049805,0.019638061523
0.041427612305,0.038345336914,0.247772216797,0.007263183594,0.104080200195,-0.011947631836
0.032958984375,0.034698486328,0.218582153320,0.020278930664,0.103424072266,-0.021209716797
0.046920776367,0.037338256836,0.246917724609,0.056594848633,0.096908569336,-0.017074584961
0.041488647461,0.030868530273,0.263259887695,0.068786621094,0.097167968750,-0.015823364258
0.001403808594,0.015335083008,0.203552246094,0.044784545898,0.108535766602,-0.009902954102
-0.016159057617,0.015106201172,0.155868530273,0.016769409180,0.113815307617,-0.006423950195
-0.018600463867,-0.001495361328,0.077911376953,-0.000946044922,0.117538452148,-0.003250122070
-0.036178588867,-0.014495849609,0.056976318359,-0.004684448242,0.116989135742,0.000564575195
-0.036514282227,-0.022232055664,0.047012329102,-0.021911621094,0.117248535156,0.010360717773
-0.055694580078,-0.011962890625,-0.009353637695,-0.029510498047,0.116592407227,0.012466430664
-0.065200805664,-0.003967285156,-0.054687500000,-0.033447265625,0.111511230469,0.005065917969
-0.073883056641,0.010269165039,-0.123886108398,-0.027099609375,0.107650756836,-0.000457763672
-0.074005126953,0.015243530273,-0.143646240234,-0.021545410156,0.101760864258,-0.004104614258
-0.082748413086,0.022918701172,-0.182067871094,-0.012512207031,0.085235595703,-0.008865356445
-0.082229614258,0.027191162109,-0.195114135742,-0.010040283203,0.075729370117,-0.010284423828
-0.093612670898,0.030517578125,-0.228088378906,0.002136230469,0.055541992188,-0.016754150391
-0.102264404297,0.021408081055,-0.259552001953,0.013778686523,0.043426513672,-0.023117065430
-0.112319946289,0.004104614258,-0.329391479492,0.003860473633,0.022415161133,-0.027603149414
-0.108703613281,-0.008895874023,-0.355590820313,-0.009201049805,0.008422851563,-0.024642944336
-0.108215332031,-0.017349243164,-0.357910156250,-0.008422851563,-0.028457641602,-0.020767211914
-0.107650756836,-0.026245117188,-0.337005615234,0.002090454102,-0.049453735352,-0.021759033203
-0.116851806641,-0.019531250000,-0.253417968750,0.012817382813,-0.090377807617,-0.020904541016
-0.120605468750,-0.028518676758,-0.213928222656,0.018264770508,-0.107055664063,-0.021560668945
-0.090255737305,-0.091125488281,-0.041519165039,0.022277832031,-0.136260986328,-0.020385742188
-0.039306640625,-0.137908935547,0.094024658203,0.028961181641,-0.145477294922,-0.017974853516
0.155166625977,-0.151947021484,0.499877929687,0.050186157227,-0.164276123047,-0.028350830078
0.234497070313,-0.134231567383,0.499938964844,0.057617187500,-0.152954101563,-0.035324096680
0.291915893555,-0.191207885742,0.433654785156,0.001052856445,-0.050125122070,-0.012756347656
0.328781127930,-0.142654418945,0.413436889648,-0.048599243164,-0.022857666016,0.006774902344
0.342071533203,-0.108978271484,0.476806640625,-0.043624877930,0.001480102539,0.016647338867
0.281204223633,-0.066528320313,0.435195922852,-0.024917602539,0.027206420898,0.014923095703
0.204025268555,-0.026504516602,0.340652465820,-0.010650634766,0.052856445313,0.016159057617
0.104415893555,-0.022644042969,0.179107666016,-0.011901855469,0.085037231445,0.015487670898
0.057846069336,-0.025192260742,0.114105224609,-0.031509399414,0.093292236328,0.016845703125
0.022033691406,-0.055282592773,0.006561279297,-0.042846679688,0.098831176758,0.012374877930
-0.003677368164,-0.060729980469,-0.015853881836,-0.032470703125,0.096771240234,0.010391235352
-0.044708251953,-0.071182250977,-0.050003051758,-0.008270263672,0.091644287109,0.008560180664
-0.061050415039,-0.072753906250,-0.064315795898,-0.007125854492,0.090270996094,0.009796142578
-0.103042602539,-0.070495605469,-0.118774414063,-0.021194458008,0.085662841797,0.017074584961
-0.122695922852,-0.067810058594,-0.167877197266,-0.021453857422,0.081893920898,0.018829345703
-0.139724731445,-0.069763183594,-0.301101684570,-0.010375976563,0.066436767578,0.019104003906
-0.159332275391,-0.053909301758,-0.370223999023,-0.009231567383,0.056945800781,0.020889282227
-0.161514282227,-0.020401000977,-0.427322387695,0.001983642578,0.030761718750,0.021438598633
-0.160720825195,0.063964843750,-0.499938964844,0.008132934570,0.009460449219,0.015472412109
-0.171859741211,0.074142456055,-0.499938964844,-0.004592895508,-0.052246093750,0.001052856445
-0.164245605469,0.057846069336,-0.354324340820,0.005355834961,-0.077316284180,-0.008102416992
-0.166839599609,0.044815063477,-0.283355712891,0.014358520508,-0.097656250000,-0.015121459961
-0.161056518555,-0.001663208008,-0.150695800781,0.021697998047,-0.125152587891,-0.022903442383
-0.152221679688,-0.054855346680,-0.093078613281,0.032058715820,-0.132690429688,-0.026702880859
-0.115341186523,-0.190353393555,0.093841552734,0.050247192383,-0.151199340820,-0.026153564453
-0.062164306641,-0.211074829102,0.293731689453,0.045806884766,-0.171813964844,-0.020935058594
0.111083984375,-0.059539794922,0.499938964844,0.014953613281,-0.193588256836,-0.006164550781
0.175872802734,-0.020202636719,0.499938964844,0.011444091797,-0.164184570313,-0.006103515625
0.209335327148,-0.053894042969,0.499938964844,-0.035156250000,-0.017990112305,-0.004241943359
0.212310791016,-0.023925781250,0.428756713867,-0.052780151367,0.010284423828,0.002731323242
0.186523437500,0.006835937500,0.448608398437,-0.037078857422,0.020782470703,0.011428833008
0.157379150391,0.049880981445,0.425430297852,-0.033859252930,0.043228149414,0.010055541992
0.105102539063,0.082351684570,0.271636962891,-0.014495849609,0.089202880859,-0.003326416016
0.037384033203,0.044952392578,0.176376342773,-0.010314941406,0.106597900391,-0.012588500977
0.018173217773,0.012619018555,0.097183227539,-0.004806518555,0.115600585938,-0.019866943359
-0.002761840820,-0.038360595703,-0.003158569336,0.012115478516,0.113769531250,-0.018539428711
-0.008117675781,-0.050048828125,-0.027145385742,0.014328002930,0.110900878906,-0.012710571289
-0.030975341797,-0.057296752930,-0.058914184570,0.017776489258,0.107513427734,-0.010955810547
-0.041122436523,-0.049224853516,-0.088119506836,0.016693115234,0.107101440430,-0.000656127930
-0.051208496094,-0.044403076172,-0.162841796875,0.014572143555,0.098617553711,0.003280639648
-0.054733276367,-0.041534423828,-0.202880859375,0.012008666992,0.089843750000,0.005676269531
-0.073303222656,-0.033477783203,-0.273559570313,-0.001434326172,0.065460205078,0.008682250977
-0.081466674805,-0.029403686523,-0.318450927734,-0.009613037109,0.052154541016,0.008987426758
-0.088043212891,0.006134033203,-0.421340942383,-0.024108886719,0.027008056641,0.011840820313
-0.086242675781,0.040390014648,-0.474349975586,-0.021697998047,0.014404296875,0.012039184570
-0.100112915039,0.094024658203,-0.499938964844,0.003311157227,-0.022476196289,0.001586914063
-0.108673095703,0.081787109375,-0.487884521484,0.014877319336,-0.049621582031,-0.008926391602
-0.141326904297,0.025512695313,-0.309310913086,0.036941528320,-0.102462768555,-0.031509399414
-0.154663085938,-0.014480590820,-0.237792968750,0.042190551758,-0.119506835938,-0.038940429688
-0.188278198242,-0.103027343750,-0.132400512695,0.044906616211,-0.142395019531,-0.044677734375
-0.200012207031,-0.182312011719,-0.068481445313,0.040084838867,-0.153396606445,-0.044387817383
-0.157882690430,-0.307281494141,0.255584716797,0.018432617188,-0.183151245117,-0.034072875977
-0.107604980469,-0.243591308594,0.499557495117,-0.002014160156,-0.203308105469,-0.026763916016
0.102966308594,-0.036605834961,0.499938964844,-0.061111450195,-0.171920776367,0.000198364258
0.145629882813,-0.012878417969,0.499938964844,-0.066833496094,-0.093338012695,0.013580322266
0.165466308594,-0.000625610352,0.499938964844,-0.063613891602,-0.000473022461,0.023971557617
0.174530029297,0.031906127930,0.499938964844,-0.044448852539,0.013076782227,0.017593383789
0.153350830078,0.055160522461,0.499938964844,-0.028030395508,0.057693481445,0.014678955078
0.072692871094,0.112152099609,0.398086547852,-0.011352539063,0.082412719727,0.007629394531
0.035186767578,0.086273193359,0.313171386719,-0.003433227539,0.105102539063,-0.002044677734
-0.002044677734,-0.003646850586,0.126754760742,0.009460449219,0.129409790039,-0.014480590820
-0.012985229492,-0.035873413086,0.054962158203,0.012084960938,0.130584716797,-0.015151977539
-0.021774291992,-0.078445434570,-0.028350830078,0.004241943359,0.125381469727,-0.011367797852
-0.026992797852,-0.081680297852,-0.063385009766,-0.000427246094,0.122894287109,-0.006881713867
-0.040145874023,-0.070190429688,-0.108489990234,-0.005508422852,0.113311767578,0.001571655273
-0.045257568359,-0.068161010742,-0.132293701172,-0.006576538086,0.107437133789,0.005035400391

0.079681396484,0.060104370117,0.187728881836,0.012954711914,0.015930175781,-0.000900268555
0.081008911133,0.064895629883,0.213378906250,0.016006469727,0.023925781250,-0.000930786133
0.078628540039,0.086822509766,0.314941406250,0.022338867188,0.042739868164,-0.001052856445
0.068084716797,0.118591308594,0.377227783203,0.026824951172,0.055267333984,-0.002395629883
0.077011108398,0.143112182617,0.393936157227,0.032958984375,0.079269409180,-0.010803222656
0.080474853516,0.129379272461,0.327239990234,0.033752441406,0.084136962891,-0.017333984375
0.081329345703,0.110977172852,0.285720825195,0.033905029297,0.085327148438,-0.021697998047
0.082458496094,0.070480346680,0.250518798828,0.024887084961,0.087402343750,-0.021957397461
0.070175170898,0.054595947266,0.222396850586,0.020629882813,0.092193603516,-0.021102905273
0.032302856445,0.038681030273,0.148971557617,0.014694213867,0.100280761719,-0.017333984375
0.009078979492,0.033477783203,0.109680175781,0.013977050781,0.102630615234,-0.015289306641
-0.025817871094,0.020950317383,0.038833618164,0.006698608398,0.105377197266,-0.013031005859
-0.048904418945,0.010559082031,0.010177612305,-0.003707885742,0.104858398438,-0.011123657227
-0.058959960938,-0.010971069336,-0.051239013672,-0.005676269531,0.105606079102,-0.015853881836
-0.066162109375,-0.017868041992,-0.082458496094,0.001144409180,0.106109619141,-0.019531250000
-0.074844360352,-0.008850097656,-0.140747070313,0.011932373047,0.104034423828,-0.021881103516
-0.085403442383,-0.013565063477,-0.168579101563,0.014221191406,0.102279663086,-0.022567749023
-0.083740234375,-0.019271850586,-0.195144653320,0.014099121094,0.088546752930,-0.020019531250
-0.081192016602,-0.049942016602,-0.254486083984,0.011016845703,0.075988769531,-0.014495849609
-0.079086303711,-0.056533813477,-0.279495239258,0.006088256836,0.046112060547,-0.005004882813
-0.079757690430,-0.067504882813,-0.323348999023,-0.003860473633,0.029998779297,0.000366210937
-0.091018676758,-0.058776855469,-0.351852416992,-0.007217407227,0.014312744141,0.005386352539
-0.104156494141,-0.030700683594,-0.404617309570,-0.009414672852,-0.018569946289,0.011169433594
-0.114074707031,-0.009872436523,-0.403320312500,-0.006484985352,-0.038497924805,0.012496948242
-0.134765625000,0.016769409180,-0.335494995117,0.008193969727,-0.078750610352,0.007629394531
-0.143890380859,0.028915405273,-0.289306640625,0.017181396484,-0.094161987305,0.002639770508
-0.159484863281,0.034790039063,-0.194030761719,0.030380249023,-0.117340087891,-0.009399414063
-0.163131713867,0.024688720703,-0.136520385742,0.036865234375,-0.125442504883,-0.016647338867
-0.133865356445,-0.095520019531,-0.005783081055,0.041534423828,-0.133193969727,-0.025909423828
-0.098663330078,-0.182296752930,0.165481567383,0.035018920898,-0.139053344727,-0.025787353516
0.067886352539,-0.087173461914,0.499938964844,-0.005508422852,-0.155181884766,-0.026168823242
0.221359252930,-0.056060791016,0.499938964844,-0.024963378906,-0.113937377930,-0.021194458008
0.272476196289,-0.046844482422,0.499435424805,-0.023101806641,-0.016571044922,0.003265380859
0.294799804688,-0.032241821289,0.488418579102,-0.022613525391,-0.003967285156,0.003509521484
0.270507812500,-0.041183471680,0.449111938477,0.002014160156,0.028396606445,-0.000335693359
0.213668823242,-0.014434814453,0.368164062500,0.000595092773,0.047470092773,0.005279541016
0.163665771484,0.000930786133,0.177947998047,0.004379272461,0.076171875000,0.001861572266
0.091659545898,-0.017028808594,0.107147216797,0.003036499023,0.083068847656,-0.001007080078
0.066497802734,-0.034164428711,0.051269531250,0.000213623047,0.086441040039,-0.000320434570
0.036468505859,-0.043197631836,-0.039001464844,-0.001800537109,0.088027954102,0.001785278320
0.028320312500,-0.049880981445,-0.066757202148,-0.003173828125,0.084976196289,0.002197265625
0.021392822266,-0.058242797852,-0.103225708008,-0.005172729492,0.075836181641,0.003799438477
0.014785766602,-0.051345825195,-0.115188598633,-0.002212524414,0.071289062500,0.006179809570
0.000274658203,-0.033630371094,-0.150222778320,0.007736206055,0.062072753906,0.009475708008
-0.002929687500,-0.027481079102,-0.167221069336,0.009185791016,0.055313110352,0.011291503906
-0.009414672852,0.000930786133,-0.200454711914,0.007995605469,0.036468505859,0.013183593750
-0.017288208008,0.016494750977,-0.220123291016,0.006347656250,0.028152465820,0.012863159180
-0.031433105469,0.041885375977,-0.275436401367,-0.005752563477,0.012252807617,0.009780883789
-0.031707763672,0.050994873047,-0.304840087891,-0.009582519531,0.003784179688,0.006774902344
-0.039260864258,0.069396972656,-0.355941772461,-0.006515502930,-0.018157958984,-0.001098632813
-0.038177490234,0.071731567383,-0.361694335938,-0.000473022461,-0.031982421875,-0.005783081055
-0.048385620117,0.037933349609,-0.319366455078,0.021316528320,-0.066696166992,-0.018951416016
-0.073959350586,0.018493652344,-0.269699096680,0.025604248047,-0.084548950195,-0.022705078125
-0.088226318359,0.004333496094,-0.158660888672,0.028121948242,-0.114486694336,-0.023300170898
-0.106231689453,-0.093231201172,-0.062942504883,0.025802612305,-0.126068115234,-0.023620605469
-0.108032226563,-0.178695678711,0.093429565430,0.019897460938,-0.150253295898,-0.016738891602
0.003250122070,-0.144226074219,0.499938964844,0.021804809570,-0.162185668945,-0.021331787109
0.137771606445,-0.058120727539,0.499938964844,0.007156372070,-0.130752563477,-0.019195556641
0.251251220703,-0.112213134766,0.498458862305,-0.004348754883,-0.023498535156,-0.007537841797
0.238739013672,-0.087951660156,0.434295654297,-0.007675170898,-0.007385253906,-0.001220703125
0.250534057617,-0.074707031250,0.401199340820,0.006774902344,0.018066406250,-0.000442504883
0.230346679688,-0.061187744141,0.363327026367,0.009582519531,0.031661987305,0.004791259766
0.152999877930,-0.024627685547,0.266616821289,-0.006561279297,0.056350708008,0.012954711914
0.120269775391,-0.021743774414,0.202362060547,-0.009567260742,0.067504882813,0.011901855469
0.070281982422,-0.035598754883,0.084655761719,-0.008621215820,0.081375122070,0.010925292969
0.051528930664,-0.036987304688,0.035507202148,-0.011062622070,0.083557128906,0.012145996094
0.032699584961,-0.037292480469,-0.036560058594,-0.004776000977,0.079696655273,0.012023925781
0.023345947266,-0.038803100586,-0.058654785156,-0.000946044922,0.076309204102,0.011901855469
0.011795043945,-0.032318115234,-0.088912963867,-0.002929687500,0.068603515625,0.015380859375
-0.003540039063,-0.013351440430,-0.096450805664,-0.005020141602,0.064315795898,0.015716552734
-0.012176513672,-0.004837036133,-0.109451293945,-0.007339477539,0.055130004883,0.014144897461
-0.028945922852,0.011856079102,-0.146240234375,-0.007583618164,0.050689697266,0.011810302734
-0.034622192383,0.013748168945,-0.172256469727,-0.008041381836,0.041427612305,0.007156372070
-0.039276123047,0.031997680664,-0.255157470703,-0.006851196289,0.037261962891,0.005996704102
-0.039947509766,0.042266845703,-0.308395385742,-0.009033203125,0.023117065430,0.003738403320
-0.041061401367,0.061569213867,-0.390243530273,-0.023452758789,0.010528564453,0.000991821289
-0.042572021484,0.061843872070,-0.415466308594,-0.023361206055,-0.003311157227,-0.003112792969
-0.057525634766,0.048980712891,-0.385482788086,0.002334594727,-0.041717529297,-0.013641357422
-0.069564819336,0.032699584961,-0.329681396484,0.016723632813,-0.062957763672,-0.019699096680
-0.091873168945,-0.001434326172,-0.222549438477,0.026229858398,-0.096054077148,-0.025863647461
-0.101379394531,-0.034957885742,-0.163879394531,0.027038574219,-0.108978271484,-0.026519775391
-0.085510253906,-0.167587280273,0.070678710938,0.023712158203,-0.130783081055,-0.025100708008
-0.051300048828,-0.212615966797,0.289138793945,0.018783569336,-0.144348144531,-0.025436401367
0.158340454102,-0.118270874023,0.499938964844,-0.005935668945,-0.130325317383,-0.029022216797
0.262878417969,-0.144653320313,0.499938964844,-0.025619506836,-0.068542480469,-0.018798828125
0.256149291992,-0.089416503906,0.471099853516,-0.021453857422,-0.011093139648,0.013092041016
0.252639770508,-0.077331542969,0.448562622070,-0.014541625977,0.003448486328,0.006652832031
0.221145629883,-0.045761108398,0.361190795898,0.005630493164,0.033340454102,0.012908935547
0.173965454102,-0.007553100586,0.294692993164,0.001403808594,0.047714233398,0.016418457031
0.128631591797,0.017639160156,0.219207763672,0.005599975586,0.070343017578,0.011245727539
0.074417114258,0.005645751953,0.085006713867,0.004074096680,0.076049804688,0.008163452148
0.056594848633,-0.006744384766,0.030807495117,0.000015258789,0.078125000000,0.006790161133
0.035797119141,-0.018447875977,-0.048767089844,-0.004348754883,0.075210571289,0.005111694336
0.034271240234,-0.030853271484,-0.073822021484,-0.000335693359,0.071136474609,0.002822875977
0.020782470703,-0.033279418945,-0.103332519531,0.002731323242,0.063369750977,0.004867553711
0.011123657227,-0.028701782227,-0.116210937500,0.001449584961,0.059463500977,0.005950927734
-0.010940551758,-0.008636474609,-0.161758422852,0.002151489258,0.052246093750,0.007644653320
-0.013229370117,-0.004974365234,-0.196762084961,0.004104614258,0.047790527344,0.007339477539
-0.012176513672,0.015335083008,-0.277572631836,0.006408691406,0.034545898438,0.008056640625
-0.011566162109,0.036071777344,-0.313293457031,0.004867553711,0.026260375977,0.008758544922
-0.017440795898,0.073638916016,-0.361526489258,-0.005828857422,0.001602172852,0.006042480469
-0.025085449219,0.078399658203,-0.358093261719,-0.012390136719,-0.015197753906,0.000732421875
-0.032058715820,0.068130493164,-0.338150024414,-0.008712768555,-0.050277709961,-0.009033203125
-0.052581787109,0.048858642578,-0.270660400391,0.002593994141,-0.068649291992,-0.014328002930

0.114959716797,0.036102294922,0.205032348633,0.003509521484,0.009307861328,-0.003646850586
0.131134033203,0.029022216797,0.270202636719,0.001785278320,0.017410278320,-0.003875732422
0.131683349609,0.011260986328,0.360931396484,0.001861572266,0.044372558594,-0.002136230469
0.120376586914,0.022064208984,0.328125000000,0.008102416992,0.062316894531,0.003723144531
0.086715698242,0.085098266602,0.154815673828,0.018844604492,0.087005615234,0.015548706055
0.017089843750,0.110717773438,0.072891235352,0.021133422852,0.089752197266,0.012084960938
-0.004318237305,0.114013671875,0.006072998047,0.018920898438,0.088912963867,0.002075195313
-0.011062622070,0.108306884766,-0.071456909180,-0.000595092773,0.075363159180,-0.001663208008
-0.013214111328,0.105636596680,-0.075393676758,-0.003601074219,0.066207885742,-0.007324218750
-0.002105712891,0.084320068359,-0.088333129883,0.011764526367,0.050308227539,-0.024642944336
-0.000091552734,0.059677124023,-0.111206054688,0.017410278320,0.039962768555,-0.032073974609
0.022506713867,-0.021408081055,-0.189102172852,0.007751464844,0.033233642578,-0.038345336914
0.046356201172,-0.060760498047,-0.245712280273,-0.005355834961,0.029113769531,-0.037460327148
0.078063964844,-0.073410034180,-0.310531616211,-0.016479492188,-0.012908935547,-0.026824951172
0.077148437500,-0.064239501953,-0.291351318359,-0.007446289063,-0.037155151367,-0.025863647461
0.027587890625,-0.091903686523,-0.243820190430,0.006713867188,-0.082946777344,-0.029144287109
-0.000061035156,-0.084594726563,-0.191711425781,0.004928588867,-0.101898193359,-0.029067993164
-0.041091918945,-0.074127197266,-0.067932128906,-0.002243041992,-0.128585815430,-0.018386840820
-0.060256958008,-0.047317504883,-0.009475708008,-0.005203247070,-0.134902954102,-0.009872436523
-0.093566894531,-0.046737670898,0.168731689453,-0.005157470703,-0.135681152344,0.005630493164
-0.065338134766,0.006729125977,0.471069335937,-0.010437011719,-0.137527465820,0.005249023438
0.154998779297,0.072525024414,0.499938964844,-0.008941650391,-0.072006225586,-0.011749267578
0.224197387695,-0.103363037109,0.499938964844,-0.015533447266,0.014266967773,-0.010055541992
0.133270263672,-0.091613769531,0.499938964844,0.003387451172,0.118865966797,0.006607055664
-0.074645996094,-0.043350219727,0.316497802734,0.022293090820,0.150924682617,0.009445190430
-0.111282348633,-0.044311523438,0.134384155273,0.032897949219,0.162261962891,0.029785156250
-0.099380493164,-0.046386718750,-0.059692382813,0.063507080078,0.160003662109,0.041732788086
-0.061660766602,-0.000228881836,-0.125823974609,0.065795898438,0.146240234375,0.054351806641
-0.062881469727,0.049224853516,-0.159530639648,-0.007827758789,0.101608276367,0.060241699219
-0.049331665039,0.051605224609,-0.164825439453,-0.037902832031,0.082962036133,0.056610107422
-0.017150878906,0.061279296875,-0.166030883789,-0.054473876953,0.053222656250,0.048812866211
-0.016983032227,0.074920654297,-0.169189453125,-0.050399780273,0.039489746094,0.046432495117
-0.019515991211,0.086944580078,-0.154800415039,-0.043502807617,0.037628173828,0.021133422852
-0.020690917969,0.072402954102,-0.134429931641,-0.044708251953,0.029129028320,0.008575439453
0.019195556641,0.014312744141,-0.151992797852,-0.028045654297,0.017333984375,-0.005996704102
0.016113281250,0.005462646484,-0.187240600586,-0.016906738281,0.011032104492,-0.010894775391
-0.010055541992,0.004211425781,-0.274017333984,0.003723144531,-0.011642456055,-0.018737792969
-0.021560668945,-0.003677368164,-0.299865722656,0.012145996094,-0.028671264648,-0.023880004883
-0.014785766602,-0.013061523438,-0.300765991211,0.034790039063,-0.066909790039,-0.027694702148
-0.047286987305,0.006317138672,-0.254913330078,0.039321899414,-0.083938598633,-0.028961181641
-0.073028564453,0.031127929688,-0.229278564453,0.037658691406,-0.114883422852,-0.038955688477
-0.090255737305,0.018341064453,-0.136993408203,0.031494140625,-0.131637573242,-0.047042846680
-0.106262207031,-0.058029174805,-0.074676513672,0.031127929688,-0.145858764648,-0.050323486328
-0.096450805664,-0.239822387695,0.313156127930,0.008895874023,-0.163986206055,-0.038589477539
0.013916015625,-0.168899536133,0.499938964844,-0.016021728516,-0.167404174805,-0.028076171875
0.425018310547,-0.242675781250,0.499938964844,-0.074676513672,-0.087158203125,-0.022033691406
0.314056396484,-0.158843994141,0.499938964844,-0.057403564453,0.014175415039,-0.003936767578
-0.020965576172,0.007507324219,0.379684448242,0.044723510742,0.117065429688,0.021820068359
-0.080688476563,0.014373779297,0.170028686523,0.060043334961,0.133956909180,0.031021118164
-0.067687988281,0.019897460938,-0.054412841797,0.048049926758,0.137390136719,0.047149658203
-0.041320800781,0.022979736328,-0.114044189453,0.035552978516,0.122375488281,0.052764892578
-0.030075073242,0.038009643555,-0.114410400391,-0.015090942383,0.077148437500,0.060165405273
-0.034896850586,0.065597534180,-0.109024047852,-0.035140991211,0.064178466797,0.063720703125
-0.044555664063,0.121398925781,-0.196395874023,-0.047042846680,0.049255371094,0.058471679688
-0.037811279297,0.127044677734,-0.214950561523,-0.066131591797,0.036666870117,0.050765991211
-0.026153564453,0.121704101563,-0.199554443359,-0.078369140625,0.026763916016,0.024398803711
-0.002151489258,0.069458007813,-0.135879516602,-0.054718017578,0.018569946289,0.010192871094
0.020065307617,0.035293579102,-0.125045776367,-0.018066406250,0.004638671875,-0.006576538086
0.018737792969,0.027206420898,-0.195800781250,-0.014175415039,-0.004867553711,-0.010253906250
0.024734497070,0.030288696289,-0.225296020508,0.008544921875,-0.034667968750,-0.019424438477
0.037475585938,0.036392211914,-0.249710083008,0.026184082031,-0.052291870117,-0.024490356445
0.030319213867,0.035568237305,-0.226989746094,0.036743164063,-0.069915771484,-0.031723022461
-0.014663696289,-0.020034790039,-0.120788574219,0.053176879883,-0.100692749023,-0.044082641602
-0.035476684570,-0.056335449219,-0.056243896484,0.057128906250,-0.113983154297,-0.049560546875
-0.054122924805,-0.094314575195,0.038040161133,0.045852661133,-0.124908447266,-0.043594360352
-0.064010620117,-0.098999023438,0.083175659180,0.040664672852,-0.123764038086,-0.035202026367
0.008377075195,-0.087982177734,0.398757934570,0.007736206055,-0.124176025391,-0.015289306641
0.097106933594,-0.030517578125,0.499938964844,-0.018051147461,-0.119186401367,-0.011169433594
0.354232788086,-0.154998779297,0.499938964844,-0.064331054688,-0.040115356445,-0.003601074219
0.296646118164,-0.089859008789,0.499938964844,-0.043884277344,0.023788452148,-0.000686645508
-0.020065307617,-0.010116577148,0.333038330078,0.026840209961,0.119552612305,0.008789062500
-0.071899414063,-0.007095336914,0.121459960938,0.026779174805,0.134963989258,0.015380859375
-0.044479370117,-0.026748657227,-0.053787231445,0.032058715820,0.131210327148,0.022033691406
-0.029205322266,-0.024978637695,-0.074890136719,0.036911010742,0.117767333984,0.026824951172
-0.018142700195,-0.000106811523,-0.128982543945,0.032241821289,0.083282470703,0.045516967773
-0.028549194336,0.034927368164,-0.144348144531,0.012710571289,0.065628051758,0.053970336914
-0.037826538086,0.114898681641,-0.191467285156,-0.026412963867,0.040206909180,0.051940917969
-0.021194458008,0.128280639648,-0.202743530273,-0.038284301758,0.027526855469,0.045394897461
-0.013671875000,0.119277954102,-0.186370849609,-0.053329467773,0.011688232422,0.030548095703
0.006484985352,0.084686279297,-0.121185302734,-0.044570922852,0.007812500000,0.022750854492
0.021652221680,0.065994262695,-0.107437133789,-0.029342651367,0.003372192383,0.001495361328
0.032165527344,0.061325073242,-0.141357421875,-0.015869140625,-0.006286621094,-0.003509521484
0.033737182617,0.070190429688,-0.162063598633,-0.008621215820,-0.015975952148,-0.010055541992
0.048339843750,0.078353881836,-0.195922851563,0.019668579102,-0.039230346680,-0.025070190430
0.045562744141,0.073318481445,-0.190673828125,0.029754638672,-0.053527832031,-0.034896850586
0.001037597656,0.012390136719,-0.118957519531,0.040176391602,-0.082580566406,-0.050354003906
-0.019088745117,-0.035034179688,-0.066680908203,0.040481567383,-0.095764160156,-0.054138183594
-0.048980712891,-0.064392089844,0.034286499023,0.032287597656,-0.115676879883,-0.048782348633
-0.051406860352,-0.083282470703,0.057846069336,0.030075073242,-0.117111206055,-0.040100097656
0.001007080078,-0.112426757813,0.314590454102,0.013854980469,-0.126281738281,-0.026657104492
0.059051513672,-0.057296752930,0.499938964844,0.003936767578,-0.128540039063,-0.029312133789
0.187057495117,-0.136260986328,0.499938964844,-0.030120849609,-0.056457519531,-0.020980834961
0.255813598633,-0.158935546875,0.499938964844,-0.041976928711,-0.010177612305,-0.007431030273
0.055404663086,-0.052566528320,0.498962402344,-0.005126953125,0.084808349609,0.013015747070
-0.021743774414,-0.026855468750,0.270233154297,0.013381958008,0.111816406250,0.015411376953
-0.043090820313,-0.039352416992,0.006683349609,0.026992797852,0.124801635742,0.020919799805
-0.029373168945,-0.038757324219,-0.049331665039,0.021728515625,0.117080688477,0.025848388672
-0.018875122070,-0.034423828125,-0.106567382813,0.007308959961,0.089706420898,0.037887573242
0.000946044922,-0.013809204102,-0.111007690430,0.001007080078,0.074279785156,0.042877197266
-0.001327514648,0.015121459961,-0.109924316406,-0.002960205078,0.052368164063,0.048812866211
-0.007247924805,0.066986083984,-0.100875854492,-0.012176513672,0.047851562500,0.050964355469
0.007232666016,0.078750610352,-0.105453491211,-0.029342651367,0.043121337891,0.050537109375
0.021606445313,0.095275878906,-0.093170166016,-0.054611206055,0.033615112305,0.041778564453
0.027847290039,0.100555419922,-0.103668212891,-0.053100585938,0.030715942383,0.032760620117

0.107925415039,0.031280517578,0.205825805664,-0.001663208008,0.004196166992,-0.002029418945
0.102050781250,0.014495849609,0.326797485352,-0.006530761719,0.009750366211,-0.005645751953
0.137313842773,-0.031753540039,0.499938964844,0.013961791992,0.048660278320,-0.010101318359
0.109405517578,-0.021499633789,0.498870849609,0.026840209961,0.075241088867,-0.005493164063
0.022903442383,-0.020431518555,0.322921752930,0.034927368164,0.118408203125,0.005279541016
-0.011093139648,-0.021438598633,0.200546264648,0.036041259766,0.131668090820,0.009246826172
-0.023895263672,-0.011093139648,-0.000198364258,0.032089233398,0.129928588867,0.016311645508
-0.008636474609,0.014205932617,-0.060592651367,0.030914306641,0.120681762695,0.020431518555
0.000320434570,0.040527343750,-0.086029052734,0.015350341797,0.094421386719,0.027206420898
0.007598876953,0.068145751953,-0.103179931641,-0.010620117188,0.080017089844,0.027587890625
0.015625000000,0.076095581055,-0.085586547852,-0.036071777344,0.067001342773,0.024124145508
0.028594970703,0.063720703125,-0.054519653320,-0.039138793945,0.055068969727,0.011444091797
0.029373168945,0.047882080078,-0.057632446289,-0.025695800781,0.050170898438,0.007110595703
0.037643432617,0.009277343750,-0.098297119141,-0.023254394531,0.050033569336,-0.000869750977
0.029846191406,0.006668090820,-0.118560791016,-0.025527954102,0.052734375000,-0.003067016602
0.035476684570,-0.033020019531,-0.176055908203,-0.011444091797,0.041351318359,-0.008193969727
0.046646118164,-0.061843872070,-0.204528808594,-0.008010864258,0.031906127930,-0.009719848633
0.044021606445,-0.073974609375,-0.270767211914,-0.009399414063,0.008361816406,-0.005020141602
0.033935546875,-0.065338134766,-0.303817749023,-0.011489868164,-0.006317138672,-0.001235961914
0.022567749023,-0.044708251953,-0.305053710938,0.003082275391,-0.040863037109,0.004486083984
-0.008514404297,-0.036560058594,-0.292129516602,0.009628295898,-0.059448242188,0.003402709961
-0.034591674805,-0.021087646484,-0.269012451172,0.011978149414,-0.094329833984,-0.003402709961
-0.070907592773,0.007949829102,-0.187957763672,0.019683837891,-0.109390258789,-0.008163452148
-0.095748901367,0.000366210937,-0.141677856445,0.024841308594,-0.130187988281,-0.014556884766
-0.120574951172,-0.006973266602,-0.059524536133,0.024734497070,-0.137023925781,-0.015991210938
-0.124893188477,-0.004882812500,-0.020217895508,0.015594482422,-0.146636962891,-0.011840820313
-0.146316528320,-0.068618774414,0.128692626953,0.016067504883,-0.147628784180,-0.013702392578
-0.069717407227,-0.087234497070,0.447830200195,0.017074584961,-0.151351928711,-0.018585205078
0.146652221680,0.062927246094,0.499938964844,0.045501708984,-0.083221435547,-0.048217773438
0.102066040039,-0.041427612305,0.499938964844,0.061340332031,0.015823364258,-0.041687011719
0.166412353516,-0.114166259766,0.411941528320,-0.030593872070,0.056015014648,0.001983642578
0.247817993164,-0.262054443359,0.499938964844,-0.018936157227,0.055267333984,-0.017807006836
0.097442626953,-0.156021118164,0.363555908203,0.061721801758,0.108276367188,0.002746582031
0.021072387695,-0.089950561523,0.145401000977,0.065246582031,0.124053955078,0.019149780273
0.028503417969,-0.052764892578,-0.095977783203,0.010986328125,0.113616943359,0.036712646484
0.021606445313,-0.046829223633,-0.085998535156,-0.025802612305,0.093856811523,0.039611816406
0.027053833008,-0.008026123047,-0.093124389648,-0.031539916992,0.072967529297,0.050140380859
0.023193359375,0.011413574219,-0.106826782227,-0.029495239258,0.067169189453,0.052688598633
0.027038574219,0.023132324219,-0.126251220703,-0.028366088867,0.056243896484,0.048599243164
0.027206420898,0.048599243164,-0.148117065430,-0.026870727539,0.048278808594,0.045166015625
0.034652709961,0.047836303711,-0.138107299805,-0.025360107422,0.039581298828,0.031799316406
0.046051025391,0.031417846680,-0.120620727539,-0.010177612305,0.026367187500,0.024658203125
0.049392700195,0.023895263672,-0.114242553711,-0.003097534180,0.021469116211,0.018981933594
0.050613403320,0.014129638672,-0.127471923828,0.003952026367,0.016540527344,0.011444091797
0.048187255859,0.014724731445,-0.137100219727,0.006515502930,0.012908935547,0.007171630859
0.038208007813,0.025863647461,-0.175292968750,0.016265869141,0.001831054688,-0.000839233398
0.033508300781,0.031600952148,-0.187408447266,0.021224975586,-0.006423950195,-0.003692626953
0.016342163086,0.029876708984,-0.182388305664,0.020828247070,-0.026565551758,-0.011093139648
0.006774902344,0.027496337891,-0.174911499023,0.019256591797,-0.036621093750,-0.013122558594
-0.006317138672,0.019531250000,-0.158477783203,0.017761230469,-0.056976318359,-0.018112182617
-0.028625488281,0.016967773438,-0.145065307617,0.016586303711,-0.067337036133,-0.020599365234
-0.038848876953,0.025802612305,-0.110580444336,0.020980834961,-0.086074829102,-0.025817871094
-0.043533325195,0.027389526367,-0.101470947266,0.023956298828,-0.094116210938,-0.029251098633
-0.050460815430,0.010742187500,-0.082641601563,0.018783569336,-0.108688354492,-0.032379150391
-0.052062988281,-0.086853027344,0.060134887695,0.009872436523,-0.114883422852,-0.025985717773
-0.011703491211,-0.141296386719,0.292297363281,-0.002243041992,-0.122451782227,-0.017684936523
0.161926269531,-0.025558471680,0.499938964844,-0.014633178711,-0.101394653320,-0.023406982422
0.359939575195,-0.095291137695,0.499938964844,-0.025650024414,-0.055389404297,-0.030838012695
0.388198852539,-0.305145263672,0.499938964844,-0.045623779297,0.027145385742,0.009414672852
0.110626220703,-0.064819335938,0.498062133789,0.023895263672,0.083374023438,0.037109375000
-0.024612426758,0.017425537109,0.029464721680,0.047180175781,0.124664306641,0.043426513672
-0.003540039063,0.038665771484,-0.054870605469,0.028671264648,0.116302490234,0.047698974609
0.004364013672,0.089111328125,-0.064193725586,-0.019958496094,0.084548950195,0.047882080078
0.015060424805,0.085906982422,-0.030761718750,-0.030853271484,0.067825317383,0.042480468750
0.015243530273,0.092300415039,-0.057510375977,-0.023971557617,0.060150146484,0.037567138672
0.013458251953,0.096664428711,-0.096694946289,-0.024780273438,0.058334350586,0.034393310547
0.018356323242,0.091079711914,-0.109497070313,-0.034942626953,0.039276123047,0.025009155273
0.024703979492,0.072769165039,-0.117919921875,-0.029586791992,0.032150268555,0.018692016602
0.024734497070,0.066558837891,-0.110687255859,-0.009811401367,0.022735595703,0.007278442383
0.030990600586,0.036376953125,-0.085159301758,-0.007690429688,0.022125244141,0.001434326172
0.035659790039,0.018722534180,-0.103897094727,-0.005233764648,0.022506713867,-0.007369995117
0.030914306641,0.010940551758,-0.158309936523,0.004241943359,0.011764526367,-0.008865356445
0.026428222656,0.012069702148,-0.170715332031,0.008041381836,0.000885009766,-0.009765625000
0.011764526367,0.021270751953,-0.173110961914,0.015441894531,-0.022308349609,-0.012420654297
0.002273559570,0.025863647461,-0.172698974609,0.014678955078,-0.033172607422,-0.013595581055
-0.022506713867,0.044158935547,-0.157974243164,0.006729125977,-0.054077148438,-0.015548706055
-0.028076171875,0.056015014648,-0.149322509766,0.007278442383,-0.063430786133,-0.019454956055
-0.038223266602,0.048919677734,-0.135620117188,0.016067504883,-0.080215454102,-0.029632568359
-0.044479370117,0.036636352539,-0.121887207031,0.019439697266,-0.088394165039,-0.033874511719
-0.052719116211,-0.018203735352,-0.074157714844,0.020523071289,-0.105026245117,-0.040618896484
-0.059112548828,-0.069564819336,-0.020248413086,0.017379760742,-0.112655639648,-0.038101196289
-0.020965576172,-0.180084228516,0.341766357422,0.004119873047,-0.129547119141,-0.024169921875
0.071716308594,-0.130661010742,0.499938964844,-0.000015258789,-0.131439208984,-0.024703979492
0.374008178711,-0.166305541992,0.499938964844,-0.013366699219,-0.038452148438,-0.030334472656
0.369247436523,-0.324142456055,0.499938964844,-0.025054931641,0.013000488281,-0.015563964844
0.083297729492,-0.059722900391,0.497756958008,0.009414672852,0.094787597656,0.030227661133
-0.035079956055,0.010147094727,0.242004394531,0.030456542969,0.126220703125,0.030975341797
-0.045806884766,0.018600463867,0.061676025391,0.035369873047,0.133941650391,0.034255981445
-0.029418945313,0.038543701172,-0.099182128906,0.009841918945,0.120132446289,0.037857055664
-0.018844604492,0.057418823242,-0.104614257813,-0.020538330078,0.102523803711,0.034484863281
-0.006896972656,0.072906494141,-0.083114624023,-0.016098022461,0.072814941406,0.033050537109
-0.007003784180,0.085693359375,-0.095794677734,-0.006927490234,0.065017700195,0.033523559570
-0.001190185547,0.100051879883,-0.098770141602,-0.009857177734,0.050384521484,0.025436401367
0.004806518555,0.087966918945,-0.102935791016,-0.003143310547,0.042602539063,0.018615722656
0.017013549805,0.055496215820,-0.073257446289,-0.001251220703,0.021286010742,0.007644653320
0.019393920898,0.039382934570,-0.076339721680,-0.004989624023,0.021362304688,0.003890991211
0.033309936523,0.019042968750,-0.129577636719,-0.007186889648,0.028030395508,0.004745483398
0.036239624023,0.016159057617,-0.150115966797,-0.006271362305,0.024414062500,0.002655029297
0.036437988281,0.016540527344,-0.162414550781,-0.001510620117,0.007263183594,-0.003524780273
0.031021118164,0.021087646484,-0.194305419922,0.001373291016,-0.004531860352,-0.006591796875
0.017776489258,0.027069091797,-0.196121215820,0.007263183594,-0.016921997070,-0.010375976563
-0.005477905273,0.033966064453,-0.199203491211,0.019470214844,-0.042266845703,-0.017745971680
-0.022293090820,0.044250488281,-0.191970825195,0.021133422852,-0.055343627930,-0.021011352539
-0.041122436523,0.072265625000,-0.175292968750,0.020401000977,-0.078369140625,-0.031936645508

0.115539550781,-0.019073486328,0.167800903320,0.063705444336,0.009750366211,-0.016952514648
0.139541625977,-0.018417358398,0.345458984375,0.055786132813,0.013702392578,-0.013336181641
0.156600952148,0.029846191406,0.499938964844,0.032257080078,0.054672241211,-0.012512207031
0.071868896484,0.026138305664,0.481903076172,0.029800415039,0.084945678711,-0.012680053711
0.017150878906,0.002365112305,0.298767089844,0.004440307617,0.114501953125,-0.003982543945
0.034271240234,-0.090011596680,0.128479003906,0.001464843750,0.118377685547,-0.000946044922
0.037612915039,-0.106857299805,0.072937011719,0.002670288086,0.117248535156,0.006195068359
0.035766601563,-0.085632324219,-0.055053710938,-0.000900268555,0.103149414063,0.025665283203
0.034927368164,-0.061660766602,-0.104690551758,-0.002578735352,0.092819213867,0.033248901367
0.029067993164,-0.013504028320,-0.154693603516,-0.017730712891,0.067565917969,0.043029785156
0.020034790039,0.006378173828,-0.147537231445,-0.038665771484,0.051345825195,0.046493530273
0.018753051758,0.020889282227,-0.140106201172,-0.067840576172,0.037902832031,0.049835205078
-0.007995605469,0.043716430664,-0.154998779297,-0.064270019531,0.035247802734,0.044570922852
-0.022018432617,0.063568115234,-0.157943725586,-0.056427001953,0.032043457031,0.033935546875
0.038269042969,0.003234863281,-0.190338134766,-0.033721923828,0.021850585938,0.014038085938
-0.002761840820,0.020050048828,-0.190475463867,-0.022918701172,0.012725830078,0.011154174805
-0.018478393555,0.017211914063,-0.220214843750,0.000457763672,-0.001800537109,-0.007461547852
-0.027832031250,0.012954711914,-0.227386474609,0.006607055664,-0.010467529297,-0.014236450195
-0.047851562500,-0.004028320313,-0.256042480469,0.019348144531,-0.028747558594,-0.024078369141
-0.053359985352,-0.017333984375,-0.265106201172,0.030090332031,-0.042312622070,-0.028640747070
-0.055480957031,-0.042358398438,-0.252182006836,0.035659790039,-0.071319580078,-0.031921386719
-0.087280273438,-0.041717529297,-0.230285644531,0.031677246094,-0.086090087891,-0.029815673828
-0.104019165039,-0.041061401367,-0.191635131836,0.024963378906,-0.115371704102,-0.021621704102
-0.120956420898,-0.056564331055,-0.073196411133,0.014511108398,-0.127014160156,-0.016021728516
-0.109664916992,-0.122543334961,0.071319580078,0.006149291992,-0.135879516602,-0.009490966797
0.130096435547,0.275634765625,0.499938964844,-0.009353637695,-0.150436401367,-0.015396118164
0.461318969727,-0.285873413086,0.499938964844,-0.028884887695,-0.134521484375,-0.045135498047
0.263885498047,-0.256546020508,0.499938964844,0.083068847656,0.058837890625,-0.014114379883
0.035339355469,-0.075271606445,0.233703613281,0.054077148438,0.114028930664,0.028366088867
0.043441772461,0.042221069336,-0.042312622070,-0.010681152344,0.099487304688,0.061569213867
0.055526733398,0.068557739258,0.021697998047,-0.019714355469,0.077133178711,0.059402465820
0.046890258789,0.086532592773,0.046371459961,-0.017440795898,0.068634033203,0.041015625000
0.017425537109,0.082031250000,0.037933349609,-0.002471923828,0.065643310547,0.033523559570
0.019287109375,0.053329467773,-0.008911132813,-0.005111694336,0.067871093750,0.025024414063
0.015655517578,0.028656005859,-0.099212646484,-0.003768920898,0.063247680664,0.024414062500
0.021347045898,0.022277832031,-0.110794067383,-0.005279541016,0.054656982422,0.027267456055
0.026000976563,0.027511596680,-0.097518920898,-0.008911132813,0.045883178711,0.025558471680
0.028442382813,0.041244506836,-0.099502563477,-0.000946044922,0.044143676758,0.022781372070
0.023254394531,0.048049926758,-0.109802246094,0.003829956055,0.040069580078,0.015136718750
0.028259277344,0.034759521484,-0.122817993164,-0.000061035156,0.027679443359,0.010589599609
0.030288696289,0.029754638672,-0.132385253906,-0.000717163086,0.021011352539,0.007339477539
0.019165039063,0.040832519531,-0.160751342773,-0.002151489258,0.004241943359,0.005813598633
0.009811401367,0.050689697266,-0.160842895508,-0.000701904297,-0.006332397461,0.005554199219
0.008804321289,0.048141479492,-0.146820068359,0.000030517578,-0.022933959961,0.002624511719
0.003204345703,0.052459716797,-0.140228271484,0.002990722656,-0.030563354492,0.000885009766
-0.003143310547,0.052993774414,-0.149353027344,0.011322021484,-0.043197631836,-0.004165649414
-0.024887084961,0.069305419922,-0.162384033203,0.013717651367,-0.052154541016,-0.008163452148
-0.027069091797,0.074127197266,-0.160736083984,0.013854980469,-0.071151733398,-0.018478393555
-0.051254272461,0.096405029297,-0.139831542969,0.004974365234,-0.080230712891,-0.023818969727
-0.060363769531,0.098129272461,-0.117996215820,0.005889892578,-0.088394165039,-0.030227661133
-0.069168090820,0.053039550781,-0.063476562500,0.018585205078,-0.104675292969,-0.040802001953
-0.073669433594,0.011108398438,-0.028152465820,0.020339965820,-0.111465454102,-0.042465209961
-0.027465820313,-0.162689208984,0.285629272461,0.023773193359,-0.121795654297,-0.042083740234
0.093170166016,-0.191635131836,0.499938964844,0.030532836914,-0.114883422852,-0.050659179688
0.234558105469,-0.216125488281,0.499938964844,0.076217651367,-0.006576538086,-0.044052124023
0.182891845703,-0.180892944336,0.448104858398,0.027786254883,0.033599853516,-0.011230468750
0.317153930664,-0.257583618164,0.499938964844,-0.062393188477,0.041564941406,0.008331298828
0.332366943359,-0.242523193359,0.499938964844,-0.032653808594,0.063186645508,0.008255004883
0.081497192383,-0.120300292969,0.214202880859,0.022415161133,0.107086181641,0.039108276367
0.032699584961,-0.060791015625,0.008148193359,-0.000595092773,0.115264892578,0.048690795898
0.026351928711,-0.003982543945,-0.104660034180,-0.044281005859,0.086959838867,0.057876586914
0.012908935547,0.075622558594,-0.086990356445,-0.044845581055,0.069259643555,0.053390502930
0.004776000977,0.094604492188,-0.075317382813,-0.034530639648,0.059173583984,0.046585083008
0.002761840820,0.107971191406,-0.112609863281,-0.032165527344,0.047103881836,0.037780761719
0.007125854492,0.107604980469,-0.119415283203,-0.038314819336,0.039611816406,0.034973144531
0.020706176758,0.077972412109,-0.088256835938,-0.028518676758,0.027130126953,0.021881103516
0.001296997070,0.085754394531,-0.048278808594,-0.014480590820,0.021057128906,0.014556884766
0.015045166016,0.054397583008,-0.066772460938,-0.016326904297,0.032852172852,-0.006042480469
0.013595581055,0.043304443359,-0.079589843750,-0.015396118164,0.033248901367,-0.010665893555
0.014007568359,0.025360107422,-0.140747070313,0.005218505859,0.028793334961,-0.019348144531
0.013839721680,0.009552001953,-0.161041259766,0.008544921875,0.020538330078,-0.021682739258
0.016571044922,-0.000778198242,-0.191467285156,0.015563964844,-0.000106811523,-0.020614624023
0.012145996094,-0.016510009766,-0.217727661133,0.017807006836,-0.014465332031,-0.017456054688
0.006744384766,-0.011795043945,-0.207839965820,0.022232055664,-0.028976440430,-0.014846801758
-0.011383056641,0.020278930664,-0.229919433594,0.029251098633,-0.058181762695,-0.015869140625
-0.026504516602,0.037704467773,-0.234909057617,0.030120849609,-0.075393676758,-0.021026611328
-0.060943603516,0.049697875977,-0.168884277344,0.028137207031,-0.109237670898,-0.033569335938
-0.086761474609,0.025527954102,-0.097137451172,0.023956298828,-0.125534057617,-0.037796020508
-0.101379394531,-0.122055053711,0.129562377930,0.018753051758,-0.144592285156,-0.037521362305
-0.047271728516,-0.173141479492,0.446212768555,0.022735595703,-0.150070190430,-0.030014038086
0.259689331055,-0.100158691406,0.499938964844,0.046371459961,-0.090194702148,-0.036239624023
0.260375976563,-0.164398193359,0.499938964844,0.067108154297,-0.003005981445,-0.033981323242
0.206359863281,-0.101531982422,0.382064819336,-0.030319213867,0.063613891602,0.007446289063
0.208511352539,-0.125778198242,0.376281738281,-0.033248901367,0.073120117188,0.005020141602
0.103485107422,-0.068161010742,0.179122924805,0.026138305664,0.102600097656,0.006973266602
0.064300537109,-0.030975341797,0.045654296875,0.017807006836,0.106002807617,0.013610839844
0.046630859375,0.001739501953,-0.048233032227,-0.018280029297,0.087371826172,0.025466918945
0.047500610352,0.021453857422,-0.083282470703,-0.027770996094,0.072845458984,0.025299072266
0.051132202148,0.010208129883,-0.058044433594,-0.026931762695,0.060821533203,0.025253295898
0.047836303711,0.018157958984,-0.065353393555,-0.014266967773,0.050231933594,0.030532836914
0.044143676758,0.027816772461,-0.085754394531,-0.013748168945,0.044525146484,0.031250000000
0.037246704102,0.047180175781,-0.111328125000,-0.017944335938,0.032302856445,0.029174804688
0.042877197266,0.042037963867,-0.108459472656,-0.019821166992,0.024551391602,0.026062011719
0.045913696289,0.034774780273,-0.119522094727,-0.010330200195,0.013214111328,0.018859863281
0.047103881836,0.029632568359,-0.113296508789,-0.010208129883,0.012588500977,0.012390136719
0.048751831055,0.023696899414,-0.113418579102,-0.003112792969,0.010269165039,0.000427246094
0.042709350586,0.021774291992,-0.153991699219,0.003463745117,0.005569458008,-0.002929687500
0.038681030273,0.020141601563,-0.172164916992,0.010162353516,-0.002395629883,-0.007476806641
0.016220092773,0.020492553711,-0.170104980469,0.026367187500,-0.026321411133,-0.014205932617
0.013519287109,0.026626586914,-0.180816650391,0.026489257813,-0.036788940430,-0.017456054688
-0.000808715820,0.042266845703,-0.191650390625,0.031433105469,-0.063903808594,-0.023452758789
-0.013198852539,0.035644531250,-0.180908203125,0.034423828125,-0.078567504883,-0.029724121094
-0.059707641602,0.014862060547,-0.091186523438,0.030639648438,-0.105209350586,-0.035919189453
-0.080963134766,-0.010131835938,-0.029678344727,0.027084350586,-0.117477416992,-0.036041259766

0.131195068359,0.015563964844,0.203445434570,-0.013916015625,0.001678466797,0.003540039063
0.131317138672,0.029479980469,0.231781005859,-0.010803222656,0.006790161133,0.002609252930
0.124588012695,0.050338745117,0.215927124023,-0.003173828125,0.026992797852,0.002044677734
0.114715576172,0.062026977539,0.208023071289,-0.000656127930,0.036865234375,0.001846313477
0.110107421875,0.018722534180,0.237274169922,0.011886596680,0.056228637695,-0.000915527344
0.107543945313,-0.006011962891,0.261505126953,0.014846801758,0.066848754883,0.001525878906
0.088455200195,-0.016448974609,0.236221313477,0.026260375977,0.081329345703,0.014511108398
0.042739868164,-0.009033203125,0.080230712891,0.049713134766,0.105514526367,0.016601562500
0.039367675781,-0.011474609375,0.029022216797,0.048599243164,0.107452392578,0.019073486328
0.024536132813,0.016662597656,-0.035064697266,0.018157958984,0.094818115234,0.028488159180
0.017578125000,0.034042358398,-0.082763671875,0.004196166992,0.087982177734,0.030044555664
-0.012908935547,0.081222534180,-0.117477416992,-0.013626098633,0.069931030273,0.024139404297
-0.024566650391,0.092361450195,-0.139816284180,-0.011001586914,0.061416625977,0.016754150391
-0.048034667969,0.090194702148,-0.195541381836,-0.011474609375,0.038574218750,-0.001266479492
-0.048004150391,0.076477050781,-0.221908569336,-0.010604858398,0.025985717773,-0.009277343750
-0.049438476563,0.065246582031,-0.261703491211,-0.000946044922,-0.002380371094,-0.023757934570
-0.047378540039,0.052551269531,-0.361389160156,-0.002655029297,0.014587402344,-0.032882690430
-0.044967651367,0.028503417969,-0.397125244141,-0.003067016602,-0.026443481445,-0.034515380859
-0.050064086914,0.005569458008,-0.386596679688,0.017410278320,-0.055740356445,-0.035827636719
-0.068481445313,-0.007583618164,-0.319839477539,0.025497436523,-0.115432739258,-0.046630859375
-0.121505737305,-0.077728271484,-0.154495239258,0.008865356445,-0.138595581055,-0.044387817383
-0.184188842773,-0.108123779297,-0.040908813477,-0.007827758789,-0.157669067383,-0.034164428711
-0.191604614258,-0.212905883789,0.295639038086,-0.013580322266,-0.179443359375,-0.006225585938
-0.029159545898,-0.129333496094,0.499938964844,0.007751464844,-0.201202392578,-0.006027221680
0.268463134766,-0.162200927734,0.499938964844,0.108932495117,-0.128814697266,-0.075363159180
0.210540771484,-0.298248291016,0.499938964844,0.152069091797,-0.016464233398,-0.056167602539
0.075897216797,-0.188842773438,0.345764160156,-0.017074584961,0.065246582031,0.027526855469
0.068771362305,-0.132614135742,0.245529174805,-0.030532836914,0.078689575195,0.035110473633
0.053955078125,-0.069122314453,0.130157470703,-0.001434326172,0.096572875977,0.023132324219
0.039352416992,-0.043212890625,0.078598022461,-0.003738403320,0.099136352539,0.024246215820
0.040283203125,-0.056701660156,0.044540405273,-0.030822753906,0.096572875977,0.031631469727
0.033721923828,-0.051910400391,0.002670288086,-0.041778564453,0.094406127930,0.036560058594
0.032485961914,-0.028350830078,-0.088760375977,-0.036361694336,0.079818725586,0.037200927734
0.032043457031,-0.017425537109,-0.110748291016,-0.024917602539,0.069290161133,0.035308837891
0.026351928711,-0.004821777344,-0.152343750000,-0.012390136719,0.051635742188,0.032638549805
0.022613525391,0.020538330078,-0.162796020508,-0.008148193359,0.043182373047,0.030731201172
0.021347045898,0.031311035156,-0.170043945313,0.005599975586,0.023223876953,0.025390625000
0.019363403320,0.046463012695,-0.183746337891,0.012603759766,0.012725830078,0.020660400391
0.022933959961,0.042449951172,-0.193374633789,0.015930175781,0.002655029297,0.014633178711
0.026275634766,0.038772583008,-0.200378417969,-0.003158569336,-0.004516601563,0.004058837891
0.019332885742,0.047134399414,-0.200546264648,-0.007003784180,-0.010894775391,0.000900268555
-0.002883911133,0.064514160156,-0.231018066406,-0.000457763672,-0.036087036133,-0.007446289063
-0.012832641602,0.059890747070,-0.232803344727,0.000518798828,-0.049438476563,-0.012878417969
-0.037826538086,0.046966552734,-0.192214965820,0.004837036133,-0.083831787109,-0.020477294922
-0.053359985352,0.027572631836,-0.150100708008,0.003295898438,-0.101043701172,-0.023406982422
-0.104568481445,-0.066635131836,-0.024902343750,-0.000778198242,-0.134124755859,-0.018356323242
-0.115661621094,-0.141082763672,0.133651733398,-0.001327514648,-0.146011352539,-0.009628295898
0.086563110352,-0.067581176758,0.499938964844,0.046203613281,-0.149490356445,-0.020706176758
0.191513061523,-0.042694091797,0.499938964844,0.079452514648,-0.119033813477,-0.046676635742
0.151748657227,-0.136642456055,0.499938964844,0.041946411133,0.018478393555,-0.018753051758
0.113525390625,-0.112365722656,0.393844604492,-0.020050048828,0.047729492188,0.006576538086
0.120498657227,-0.095458984375,0.279586791992,-0.022964477539,0.073348999023,0.007507324219
0.103179931641,-0.083724975586,0.250289916992,-0.003448486328,0.084228515625,0.003799438477
0.077301025391,-0.060043334961,0.201843261719,0.004150390625,0.105270385742,0.012847900391
0.042831420898,-0.029251098633,0.089096069336,-0.007492065430,0.111618041992,0.019546508789
0.038909912109,-0.031509399414,0.023864746094,-0.020660400391,0.112609863281,0.024215698242
0.044235229492,-0.037582397461,-0.047470092773,-0.022247314453,0.098358154297,0.026382446289
0.043380737305,-0.031875610352,-0.044235229492,-0.009216308594,0.089630126953,0.024887084961
0.022171020508,-0.013015747070,-0.082061767578,0.008804321289,0.082733154297,0.029220581055
0.016159057617,0.000732421875,-0.114517211914,0.009063720703,0.076583862305,0.032913208008
0.000396728516,0.041442871094,-0.168869018555,0.004089355469,0.056182861328,0.031967163086
-0.002456665039,0.052947998047,-0.193618774414,0.003768920898,0.042877197266,0.027343750000
-0.004257202148,0.057891845703,-0.209014892578,-0.004180908203,0.016403198242,0.013565063477
0.001129150391,0.048370361328,-0.208724975586,-0.004089355469,0.005111694336,0.006240844727
0.002655029297,0.044509887695,-0.208938598633,0.001083374023,-0.017654418945,-0.005203247070
-0.010452270508,0.059478759766,-0.240783691406,0.003158569336,-0.023971557617,-0.009796142578
-0.011932373047,0.054046630859,-0.265960693359,0.008453369141,-0.046508789063,-0.018310546875
-0.028579711914,0.045288085938,-0.245880126953,0.012939453125,-0.064712524414,-0.021957397461
-0.035766601563,0.037673950195,-0.220840454102,0.017013549805,-0.083023071289,-0.029891967773
-0.069915771484,-0.008361816406,-0.134765625000,0.012252807617,-0.116256713867,-0.031173706055
-0.101211547852,-0.039978027344,-0.075103759766,0.004516601563,-0.128997802734,-0.029174804688
-0.145370483398,-0.167068481445,0.165954589844,0.010528564453,-0.145202636719,-0.019073486328
-0.045745849609,-0.169433593750,0.433883666992,0.024978637695,-0.156555175781,-0.020584106445
0.217300415039,-0.122406005859,0.499938964844,0.050262451172,-0.125381469727,-0.052673339844
0.262527465820,-0.153823852539,0.499938964844,0.043304443359,-0.057678222656,-0.043319702148
0.119049072266,-0.105331420898,0.420806884766,-0.008590698242,0.044601440430,0.008300781250
0.108764648438,-0.096984863281,0.315063476563,-0.012802124023,0.061248779297,0.009826660156
0.097396850586,-0.095169067383,0.215179443359,0.013076782227,0.084182739258,0.002273559570
0.079879760742,-0.071975708008,0.188949584961,0.010025024414,0.092025756836,0.008255004883
0.041458129883,-0.037002563477,0.096649169922,-0.012924194336,0.100112915039,0.021636962891
0.035079956055,-0.035278320313,0.041290283203,-0.020446777344,0.099197387695,0.023544311523
0.033355712891,-0.031890869141,-0.039764404297,-0.015151977539,0.090270996094,0.023986816406
0.032028198242,-0.023056030273,-0.069076538086,-0.006851196289,0.083786010742,0.025238037109
0.027267456055,-0.009780883789,-0.103851318359,0.004791259766,0.068557739258,0.026428222656
0.024490356445,0.016693115234,-0.149215698242,0.003768920898,0.057952880859,0.027603149414
0.022720336914,0.032943725586,-0.167480468750,0.001815795898,0.045303344727,0.024032592773
0.029098510742,0.040237426758,-0.189331054688,0.002273559570,0.019927978516,0.018661499023
0.029632568359,0.044433593750,-0.200164794922,0.005722045898,0.011825561523,0.012710571289
0.031402587891,0.043243408203,-0.206085205078,-0.006149291992,0.003494262695,0.004867553711
0.034576416016,0.041839599609,-0.195053100586,-0.014022827148,-0.006103515625,0.002532958984
0.022415161133,0.049102783203,-0.214523315430,-0.004074096680,-0.026931762695,-0.003555297852
0.014739990234,0.052047729492,-0.219665527344,-0.000350952148,-0.038818359375,-0.007583618164
-0.001525878906,0.047286987305,-0.212448120117,0.000946044922,-0.067626953125,-0.015090942383
-0.017013549805,0.037933349609,-0.188232421875,-0.001281738281,-0.084594726563,-0.017944335938
-0.056427001953,-0.025650024414,-0.097824096680,0.001144409180,-0.119293212891,-0.020416259766
-0.103042602539,-0.077255249023,-0.026351928711,0.004150390625,-0.130630493164,-0.020416259766
-0.124221801758,-0.165145874023,0.244094848633,0.024139404297,-0.142196655273,-0.007797241211
-0.002212524414,-0.157989501953,0.482849121094,0.038467407227,-0.144882202148,-0.013519287109
0.249862670898,-0.105148315430,0.499938964844,0.049713134766,-0.100265502930,-0.051132202148
0.226181030273,-0.143814086914,0.499938964844,0.042709350586,-0.026855468750,-0.034866333008
0.137176513672,-0.155517578125,0.354553222656,-0.006408691406,0.057464599609,0.008758544922
0.103988647461,-0.137451171875,0.310592651367,-0.013320922852,0.069808959961,0.011047363281
0.081405639648,-0.111511230469,0.245132446289,-0.003189086914,0.082138061523,0.013183593750
0.046417236328,-0.057418823242,0.160369873047,-0.001037597656,0.098602294922,0.018432617188

0.103790283203,-0.041275024414,0.267929077148,0.012191772461,-0.019210815430,-0.005264282227
0.135101318359,-0.038284301758,0.403182983398,0.006774902344,-0.010650634766,-0.004562377930
0.157684326172,-0.062377929688,0.499938964844,-0.001098632813,0.035888671875,0.002243041992
0.092376708984,-0.084884643555,0.499664306641,-0.000228881836,0.068054199219,0.012985229492
0.001541137695,-0.057922363281,0.216018676758,-0.004867553711,0.112625122070,0.016235351563
0.010986328125,-0.054885864258,0.174423217773,-0.008148193359,0.117752075195,0.013244628906
0.002548217773,-0.035690307617,0.137863159180,0.003723144531,0.123718261719,0.011917114258
-0.007263183594,-0.035125732422,0.109054565430,0.010437011719,0.123840332031,0.013000488281
-0.015609741211,-0.027740478516,0.070663452148,0.014587402344,0.120925903320,0.020706176758
-0.029525756836,-0.024719238281,0.017425537109,0.007400512695,0.118652343750,0.025238037109
-0.035812377930,-0.011398315430,-0.039947509766,0.001998901367,0.114822387695,0.029937744141
-0.035339355469,0.024017333984,-0.099578857422,-0.012176513672,0.098434448242,0.032196044922
-0.039093017578,0.049453735352,-0.116134643555,-0.009109497070,0.089538574219,0.029067993164
-0.054428100586,0.084777832031,-0.148651123047,0.003784179688,0.068893432617,0.015182495117
-0.058685302734,0.088562011719,-0.172561645508,0.009384155273,0.056976318359,0.005615234375
-0.070861816406,0.086029052734,-0.233932495117,-0.000808715820,0.053390502930,-0.012451171875
-0.071853637695,0.070602416992,-0.266754150391,-0.014434814453,0.061477661133,-0.018585205078
-0.068344116211,0.014617919922,-0.337829589844,-0.010818481445,0.039413452148,-0.032577514648
-0.057357788086,-0.016174316406,-0.372711181641,-0.004455566406,0.021011352539,-0.035110473633
-0.049240112305,-0.041076660156,-0.410125732422,-0.003677368164,-0.026901245117,-0.029083251953
-0.053039550781,-0.053131103516,-0.379302978516,0.001174926758,-0.053802490234,-0.025222778320
-0.077896118164,-0.053497314453,-0.256118774414,0.006362915039,-0.105865478516,-0.017105102539
-0.095504760742,-0.045120239258,-0.180160522461,0.002105712891,-0.128738403320,-0.014328002930
-0.135742187500,-0.089920043945,-0.044937133789,-0.002182006836,-0.162719726563,-0.010833740234
-0.153213500977,-0.133453369141,0.041046142578,0.000564575195,-0.173690795898,-0.004409790039
-0.049911499023,-0.207321166992,0.402038574219,0.041503906250,-0.179870605469,-0.001358032227
0.111083984375,-0.204315185547,0.499938964844,0.080337524414,-0.171447753906,-0.029281616211
0.242614746094,-0.289215087891,0.499938964844,0.114761352539,-0.069854736328,-0.056488037109
0.161743164063,-0.243835449219,0.499938964844,0.053237915039,0.007446289063,-0.009979248047
0.105819702148,-0.161041259766,0.390991210938,-0.045486450195,0.063629150391,0.031890869141
0.120330810547,-0.121063232422,0.225158691406,-0.024871826172,0.077545166016,0.020782470703
0.100738525391,-0.108673095703,0.213104248047,0.003326416016,0.089538574219,0.014129638672
0.059936523438,-0.081787109375,0.149993896484,0.010314941406,0.107604980469,0.025344848633
0.038925170898,-0.066467285156,0.084899902344,-0.010513305664,0.111007690430,0.034835815430
0.027862548828,-0.038543701172,-0.057510375977,-0.036529541016,0.105194091797,0.043014526367
0.034912109375,-0.033569335938,-0.093811035156,-0.031631469727,0.095825195313,0.042053222656
0.029602050781,-0.021759033203,-0.094070434570,-0.014129638672,0.076782226563,0.039123535156
0.024780273438,-0.007934570313,-0.100372314453,-0.007385253906,0.069946289063,0.040267944336
0.000366210937,0.032928466797,-0.120086669922,-0.005386352539,0.050552368164,0.039855957031
-0.010101318359,0.051162719727,-0.142684936523,-0.008102416992,0.042434692383,0.035461425781
-0.009841918945,0.063110351563,-0.201034545898,-0.016143798828,0.036926269531,0.020172119141
-0.010971069336,0.065063476563,-0.223724365234,-0.016021728516,0.031982421875,0.013366699219
-0.010055541992,0.065200805664,-0.241531372070,-0.005081176758,0.014999389648,0.001296997070
-0.013427734375,0.069931030273,-0.278747558594,-0.005538940430,0.004455566406,-0.003341674805
-0.020629882813,0.072357177734,-0.296081542969,-0.007736206055,-0.007659912109,-0.012130737305
-0.022720336914,0.053192138672,-0.290405273438,-0.000595092773,-0.038406372070,-0.018218994141
-0.029129028320,0.043075561523,-0.277130126953,0.004928588867,-0.055862426758,-0.021911621094
-0.049911499023,0.019912719727,-0.220108032227,0.004882812500,-0.091079711914,-0.028182983398
-0.059722900391,-0.004806518555,-0.173324584961,0.005920410156,-0.108047485352,-0.030517578125
-0.085433959961,-0.078796386719,-0.075439453125,0.006362915039,-0.135711669922,-0.030151367188
-0.098571777344,-0.141799926758,0.012969970703,0.005630493164,-0.145690917969,-0.025405883789
0.023315429688,-0.225509643555,0.420043945312,0.031860351563,-0.156173706055,-0.018676757813
0.148162841797,-0.218994140625,0.499938964844,0.057922363281,-0.144668579102,-0.031280517578
0.251205444336,-0.259735107422,0.499938964844,0.067825317383,-0.034805297852,-0.034942626953
0.184570312500,-0.210861206055,0.497329711914,0.017211914063,0.021728515625,0.000671386719
0.135772705078,-0.101699829102,0.284881591797,-0.026580810547,0.060668945313,0.028121948242
0.126205444336,-0.080642700195,0.226730346680,-0.014282226563,0.074905395508,0.021438598633
0.091995239258,-0.045288085938,0.146743774414,0.010604858398,0.091583251953,0.020050048828
0.068359375000,-0.029006958008,0.118255615234,0.002304077148,0.095764160156,0.024627685547
0.053482055664,-0.016418457031,0.061477661133,-0.034011840820,0.093139648438,0.024246215820
0.052032470703,-0.022399902344,-0.037826538086,-0.039093017578,0.083435058594,0.018234252930
0.053009033203,-0.028717041016,-0.050491333008,-0.030471801758,0.075027465820,0.014556884766
0.035705566406,-0.024536132813,-0.052947998047,-0.005538940430,0.065322875977,0.015945434570
0.027801513672,-0.016082763672,-0.069824218750,-0.006744384766,0.060409545898,0.022079467773
0.008361816406,0.013504028320,-0.114151000977,-0.015899658203,0.050201416016,0.028167724609
0.003738403320,0.026168823242,-0.136428833008,-0.016647338867,0.047378540039,0.027130126953
0.003585815430,0.033432006836,-0.170288085938,-0.008789062500,0.040023803711,0.016677856445
0.013854980469,0.037078857422,-0.205215454102,-0.001007080078,0.033889770508,0.011199951172
-0.000488281250,0.051879882813,-0.260101318359,-0.006378173828,0.018539428711,0.001113891602
-0.002777099609,0.063659667969,-0.285690307617,-0.009216308594,0.008270263672,-0.002914428711
-0.007995605469,0.067535400391,-0.314468383789,-0.004058837891,-0.019714355469,-0.011001586914
-0.010482788086,0.058227539063,-0.304809570313,0.002243041992,-0.035995483398,-0.014694213867
-0.021774291992,0.035079956055,-0.260314941406,0.010498046875,-0.070510864258,-0.021942138672
-0.034255981445,0.025512695313,-0.226287841797,0.014068603516,-0.087448120117,-0.026367187500
-0.049011230469,0.007904052734,-0.180206298828,0.012573242188,-0.116577148438,-0.033035278320
-0.071334838867,-0.082000732422,-0.075759887695,0.006134033203,-0.127777099609,-0.032852172852
-0.074264526367,-0.167007446289,0.007522583008,0.006408691406,-0.143524169922,-0.020523071289
0.036895751953,-0.278198242188,0.446319580078,0.015365600586,-0.149154663086,-0.020645141602
0.143554687500,-0.215087890625,0.499938964844,0.019241333008,-0.138610839844,-0.031188964844
0.248413085938,-0.147720336914,0.499938964844,0.012771606445,-0.020690917969,-0.008087158203
0.166854858398,-0.127212524414,0.412322998047,-0.003158569336,0.025451660156,0.020416259766
0.151611328125,-0.037704467773,0.282379150391,-0.038818359375,0.053710937500,0.025802612305
0.143218994141,-0.035858154297,0.247406005859,-0.011917114258,0.065734863281,0.011581420898
0.100555419922,-0.036849975586,0.155075073242,0.014114379883,0.084182739258,0.007614135742
0.080581665039,-0.025924682617,0.105514526367,0.007415771484,0.087951660156,0.012130737305
0.057388305664,-0.028045654297,0.026062011719,-0.004913330078,0.087341308594,0.017852783203
0.045333862305,-0.021591186523,-0.017425537109,-0.004898071289,0.082626342773,0.019561767578
0.035110473633,-0.006011962891,-0.105651855469,0.001068115234,0.068649291992,0.019409179688
0.034347534180,0.003204345703,-0.141098022461,0.002151489258,0.059051513672,0.017379760742
0.033981323242,0.013305664063,-0.158508300781,0.001571655273,0.038238525391,0.013961791992
0.032135009766,0.021484375000,-0.167282104492,0.000930786133,0.031677246094,0.013031005859
0.026992797852,0.027465820313,-0.174224853516,-0.002380371094,0.029174804688,0.011520385742
0.030548095703,0.031402587891,-0.191070556641,0.002944946289,0.019332885742,0.005798339844
0.029510498047,0.041854858398,-0.215652465820,0.006484985352,0.012252807617,0.002761840820
0.018356323242,0.057800292969,-0.250549316406,-0.004104614258,-0.007064819336,-0.002502441406
0.007583618164,0.066116333008,-0.257369995117,-0.007507324219,-0.019515991211,-0.005401611328
-0.008560180664,0.058258056641,-0.247482299805,-0.006195068359,-0.049011230469,-0.013656616211
-0.010330200195,0.050949096680,-0.228378295898,-0.003860473633,-0.065414428711,-0.018386840820
-0.032867431641,0.008666992188,-0.161102294922,0.008590698242,-0.095046997070,-0.031387329102
-0.039825439453,-0.024597167969,-0.126083374023,0.013320922852,-0.108108520508,-0.034591674805
-0.063568115234,-0.083419799805,-0.037231445313,0.010406494141,-0.129089355469,-0.031723022461
-0.120620727539,-0.232177734375,0.068557739258,0.006896972656,-0.135757446289,-0.020187377930
-0.055938720703,-0.298706054688,0.271148681641,0.025711059570,-0.142547607422,-0.012344360352
0.194015502930,-0.200607299805,0.499938964844,0.033554077148,-0.128372192383,-0.025558471680

0.050857543945,0.041671752930,0.210189819336,0.008850097656,-0.038375854492,0.002456665039
0.102539062500,0.062728881836,0.413360595703,0.003433227539,-0.039413452148,-0.001190185547
0.215255737305,0.023040771484,0.499938964844,0.014099121094,0.004257202148,-0.032135009766
0.165145874023,-0.050384521484,0.499938964844,0.016311645508,0.042175292969,-0.036163330078
0.086196899414,-0.096710205078,0.216918945313,-0.010421752930,0.087219238281,-0.006072998047
0.038986206055,-0.090316772461,0.163162231445,-0.018844604492,0.093139648438,-0.006530761719
0.033172607422,-0.093261718750,0.138122558594,0.006484985352,0.101898193359,-0.012390136719
0.005386352539,-0.081176757813,0.117340087891,0.006774902344,0.108383178711,-0.007614135742
-0.002593994141,-0.089843750000,0.115921020508,0.006439208984,0.114349365234,0.005661010742
-0.045959472656,-0.095153808594,0.023727416992,0.004425048828,0.123413085938,0.012268066406
-0.053222656250,-0.092300415039,-0.014114379883,0.002090454102,0.120895385742,0.018066406250
-0.059448242188,-0.079956054688,-0.118606567383,0.010772705078,0.110778808594,0.027389526367
-0.053817749023,-0.057174682617,-0.174346923828,0.015853881836,0.104446411133,0.031478881836
-0.048538208008,0.000915527344,-0.240097045898,0.024047851563,0.079757690430,0.031448364258
-0.055969238281,0.041076660156,-0.259597778320,0.025436401367,0.068328857422,0.028152465820
-0.070114135742,0.092803955078,-0.309936523438,0.016662597656,0.051300048828,0.021041870117
-0.070220947266,0.109100341797,-0.335723876953,0.005294799805,0.039886474609,0.015869140625
-0.056900024414,0.090759277344,-0.356399536133,-0.003173828125,0.002014160156,0.001724243164
-0.069396972656,0.087509155273,-0.340728759766,-0.005889892578,-0.017318725586,-0.002517700195
-0.084808349609,0.070816040039,-0.305831909180,0.004730224609,-0.053405761719,-0.015594482422
-0.094604492188,0.062240600586,-0.269683837891,0.008865356445,-0.073532104492,-0.022323608398
-0.110107421875,0.053848266602,-0.230056762695,-0.001647949219,-0.109237670898,-0.028915405273
-0.145080566406,0.005905151367,-0.151473999023,-0.005035400391,-0.126464843750,-0.031890869141
-0.159866333008,-0.077407836914,-0.086608886719,-0.007629394531,-0.155868530273,-0.027420043945
-0.057113647461,-0.306732177734,0.298431396484,0.013504028320,-0.158843994141,-0.014480590820
0.109542846680,-0.304061889648,0.499938964844,0.110107421875,-0.129165649414,-0.040039062500
0.266799926758,-0.195144653320,0.499938964844,0.157714843750,-0.076278686523,-0.086273193359
0.242614746094,-0.368804931641,0.499938964844,0.171371459961,-0.012268066406,-0.048629760742
0.211822509766,-0.316223144531,0.287551879883,-0.006225585938,0.043014526367,-0.012496948242
0.198486328125,-0.275314331055,0.223526000977,-0.023880004883,0.049896240234,0.008453369141
0.117385864258,-0.132217407227,0.169357299805,0.004135131836,0.066284179688,0.024093627930
0.081817626953,-0.095306396484,0.134750366211,0.009292602539,0.073013305664,0.028015136719
0.049362182617,-0.070297241211,0.035903930664,-0.043304443359,0.078903198242,0.042312622070
0.038879394531,-0.066772460938,-0.017471313477,-0.064224243164,0.075210571289,0.052658081055
0.035339355469,-0.057312011719,-0.081161499023,-0.057281494141,0.065063476563,0.059432983398
0.030151367188,-0.042205810547,-0.090148925781,-0.040985107422,0.061187744141,0.058319091797
0.019592285156,0.006210327148,-0.086791992188,-0.016113281250,0.059982299805,0.053512573242
-0.001678466797,0.028350830078,-0.089706420898,-0.013122558594,0.059448242188,0.049865722656
-0.006927490234,0.044479370117,-0.105285644531,-0.020935058594,0.052810668945,0.038970947266
-0.001266479492,0.056686401367,-0.163269042969,-0.023208618164,0.047607421875,0.032257080078
-0.007110595703,0.065811157227,-0.189468383789,-0.020584106445,0.042480468750,0.016128540039
-0.013977050781,0.071060180664,-0.227447509766,-0.005767822266,0.029205322266,0.008789062500
-0.013580322266,0.066940307617,-0.241546630859,-0.002304077148,0.022262573242,0.002990722656
-0.015304565430,0.066543579102,-0.284912109375,-0.001419067383,0.005493164063,-0.006561279297
-0.022613525391,0.062484741211,-0.292739868164,-0.003097534180,-0.007675170898,-0.012512207031
-0.023666381836,0.041748046875,-0.278228759766,0.005950927734,-0.037094116211,-0.023498535156
-0.037017822266,0.038116455078,-0.268417358398,0.010009765625,-0.052413940430,-0.028594970703
-0.058563232422,0.018814086914,-0.240722656250,0.005996704102,-0.087249755859,-0.039306640625
-0.072753906250,-0.016799926758,-0.208526611328,0.000778198242,-0.106002807617,-0.042251586914
-0.116378784180,-0.149002075195,-0.077529907227,-0.009353637695,-0.143997192383,-0.034744262695
-0.119338989258,-0.226425170898,0.085861206055,-0.013153076172,-0.156585693359,-0.021743774414
0.128707885742,-0.191925048828,0.499938964844,0.032745361328,-0.159820556641,-0.016586303711
0.243057250977,-0.088241577148,0.499938964844,0.084213256836,-0.129684448242,-0.053268432617
0.199386596680,-0.291641235352,0.499938964844,0.118881225586,0.022476196289,-0.053894042969
0.149765014648,-0.221298217773,0.327301025391,0.017044067383,0.045715332031,-0.003585815430
0.169799804688,-0.175201416016,0.219131469727,-0.039993286133,0.060241699219,0.023788452148
0.140274047852,-0.127105712891,0.207702636719,-0.013305664063,0.069671630859,0.020355224609
0.110931396484,-0.100280761719,0.173004150391,0.011566162109,0.086593627930,0.024765014648
0.067382812500,-0.094573974609,0.063659667969,-0.004974365234,0.091644287109,0.033416748047
0.052597045898,-0.088989257813,-0.003814697266,-0.017608642578,0.092712402344,0.041763305664
0.035018920898,-0.051651000977,-0.094863891602,-0.012161254883,0.077270507813,0.051879882813
0.027893066406,-0.033981323242,-0.105850219727,-0.007934570313,0.066711425781,0.053604125977
0.014709472656,-0.013320922852,-0.096908569336,-0.002792358398,0.052291870117,0.046463012695
0.009521484375,-0.002639770508,-0.095108032227,-0.003707885742,0.049835205078,0.042098999023
-0.005004882813,0.023483276367,-0.142532348633,-0.004608154297,0.043289184570,0.037231445313
-0.009048461914,0.036941528320,-0.175949096680,-0.004089355469,0.038574218750,0.033065795898
-0.012893676758,0.060440063477,-0.232192993164,0.003448486328,0.026473999023,0.022994995117
-0.012878417969,0.072662353516,-0.245132446289,0.009475708008,0.018600463867,0.017440795898
-0.007629394531,0.093093872070,-0.264328002930,0.011413574219,-0.000244140625,0.006179809570
-0.021759033203,0.099151611328,-0.256637573242,0.004898071289,-0.011917114258,-0.000549316406
-0.025863647461,0.091384887695,-0.246597290039,0.008148193359,-0.039245605469,-0.014556884766
-0.035659790039,0.086288452148,-0.220520019531,0.008773803711,-0.053741455078,-0.021011352539
-0.048324584961,0.087814331055,-0.192916870117,0.008163452148,-0.068450927734,-0.033126831055
-0.076171875000,0.068817138672,-0.145401000977,0.006896972656,-0.095916748047,-0.037643432617
-0.091247558594,0.031616210938,-0.104568481445,0.004699707031,-0.109970092773,-0.041641235352
-0.073623657227,-0.155456542969,0.112518310547,0.008026123047,-0.131027221680,-0.043243408203
0.011871337891,-0.219177246094,0.365127563477,0.021652221680,-0.136199951172,-0.045684814453
0.273895263672,-0.243652343750,0.499938964844,0.067581176758,-0.085937500000,-0.078399658203
0.293807983398,-0.320556640625,0.499938964844,0.074859619141,-0.010528564453,-0.069885253906
0.183502197266,-0.237442016602,0.215545654297,-0.003540039063,0.040954589844,0.002777099609
0.203552246094,-0.216659545898,0.171829223633,-0.035552978516,0.042922973633,0.017562866211
0.189361572266,-0.164566040039,0.175674438477,-0.008956909180,0.054306030273,0.016189575195
0.154235839844,-0.128723144531,0.140701293945,0.007888793945,0.060623168945,0.019775390625
0.098220825195,-0.082595825195,0.059738159180,-0.015991210938,0.065963745117,0.032257080078
0.083175659180,-0.061309814453,0.012985229492,-0.028930664063,0.066009521484,0.039199829102
0.071197509766,-0.043624877930,-0.032821655273,-0.031509399414,0.056472778320,0.042266845703
0.064132690430,-0.028289794922,-0.067779541016,-0.021224975586,0.049606323242,0.039749145508
0.057510375977,-0.022552490234,-0.056915283203,-0.013656616211,0.045074462891,0.031890869141
0.041427612305,-0.001586914063,-0.063568115234,-0.005310058594,0.043304443359,0.030761718750
0.031417846680,0.012680053711,-0.074981689453,-0.002288818359,0.041076660156,0.028488159180
0.019134521484,0.031433105469,-0.105743408203,0.004180908203,0.034805297852,0.022949218750
0.012847900391,0.038818359375,-0.129409790039,0.006576538086,0.031921386719,0.019653320313
0.006729125977,0.058319091797,-0.191818237305,0.006683349609,0.024948120117,0.011535644531
0.000549316406,0.073318481445,-0.213729858398,0.001052856445,0.019500732422,0.007995605469
-0.005798339844,0.085693359375,-0.242538452148,-0.006179809570,0.002456665039,0.001174926758
-0.006332397461,0.083236694336,-0.248519897461,-0.006851196289,-0.008621215820,-0.003463745117
-0.009124755859,0.078247070313,-0.254638671875,-0.001174926758,-0.035537719727,-0.014068603516
-0.023880004883,0.068359375000,-0.243911743164,0.001022338867,-0.051589965820,-0.018692016602
-0.034454345703,0.065582275391,-0.227294921875,0.003341674805,-0.085922241211,-0.028503417969
-0.065353393555,0.032943725586,-0.165908813477,0.003173828125,-0.102859497070,-0.032272338867
-0.094512939453,-0.016540527344,-0.115356445313,-0.000396728516,-0.132644653320,-0.031967163086
-0.088180541992,-0.240661621094,0.163299560547,0.006103515625,-0.142944335938,-0.028289794922
0.057159423828,-0.277221679688,0.491836547852,0.063888549805,-0.131607055664,-0.061248779297
0.320846557617,-0.279388427734,0.499938964844,0.107330322266,-0.061431884766,-0.083908081055

0.116104125977,-0.041915893555,0.214218139648,0.022994995117,-0.030517578125,0.011322021484
0.133056640625,0.014755249023,0.356307983398,0.017028808594,-0.033447265625,0.014175415039
0.177612304688,0.131942749023,0.499938964844,0.012161254883,-0.003509521484,0.001358032227
0.163955688477,0.124618530273,0.499938964844,0.008773803711,0.025726318359,-0.011199951172
0.122100830078,0.067993164063,0.437301635742,-0.004730224609,0.077285766602,-0.006973266602
0.040786743164,-0.023559570313,0.239089965820,-0.013092041016,0.089340209961,-0.016281127930
0.023300170898,-0.049819946289,0.190795898438,-0.014541625977,0.102233886719,-0.018722534180
-0.008728027344,-0.084106445313,0.090515136719,-0.005493164063,0.107879638672,-0.017868041992
-0.018981933594,-0.089843750000,0.061157226563,-0.000717163086,0.111404418945,-0.014602661133
-0.034164428711,-0.099288940430,0.018035888672,0.001296997070,0.115402221680,-0.001602172852
-0.045135498047,-0.093429565430,-0.006530761719,-0.003921508789,0.113296508789,0.007431030273
-0.057357788086,-0.075469970703,-0.092681884766,-0.000305175781,0.107025146484,0.017379760742
-0.058471679688,-0.055480957031,-0.135971069336,0.006774902344,0.102828979492,0.019241333008
-0.054321289063,-0.012191772461,-0.196594238281,0.025360107422,0.086486816406,0.018386840820
-0.056533813477,0.004959106445,-0.211944580078,0.034149169922,0.078628540039,0.015487670898
-0.051422119141,0.042602539063,-0.261474609375,0.041381835938,0.072174072266,0.009826660156
-0.058364868164,0.052490234375,-0.297439575195,0.035583496094,0.062927246094,0.008209228516
-0.069320678711,0.070083618164,-0.344711303711,0.008193969727,0.030303955078,0.000946044922
-0.066925048828,0.062088012695,-0.362213134766,0.000747680664,0.011947631836,-0.004211425781
-0.073181152344,0.039047241211,-0.358352661133,-0.005508422852,-0.032073974609,-0.011444091797
-0.088424682617,0.021362304688,-0.329513549805,-0.002151489258,-0.055023193359,-0.014511108398
-0.108352661133,0.010879516602,-0.280822753906,0.003280639648,-0.098693847656,-0.016998291016
-0.131591796875,-0.011581420898,-0.181091308594,0.002075195313,-0.115478515625,-0.015853881836
-0.143493652344,-0.033111572266,-0.144042968750,0.002319335938,-0.144409179688,-0.013046264648
-0.160964965820,-0.166427612305,0.000885009766,0.000839233398,-0.156707763672,-0.008453369141
-0.091308593750,-0.250167846680,0.232543945313,0.010879516602,-0.170242309570,-0.003570556641
0.259552001953,-0.134185791016,0.499938964844,0.064376831055,-0.151443481445,-0.016418457031
0.344146728516,-0.053924560547,0.499938964844,0.039505004883,-0.077560424805,0.002456665039
0.249069213867,-0.108688354492,0.414764404297,-0.072799682617,0.035156250000,0.008850097656
0.268127441406,-0.097702026367,0.307098388672,-0.088287353516,0.044616699219,0.004608154297
0.204452514648,-0.055648803711,0.247131347656,-0.019607543945,0.057189941406,0.008712768555
0.162200927734,-0.026977539063,0.210083007813,-0.009155273438,0.068603515625,0.003341674805
0.076705932617,-0.001312255859,0.120315551758,-0.000961303711,0.083297729492,0.010925292969
0.050491333008,-0.007797241211,0.041381835938,-0.014144897461,0.085311889648,0.017303466797
0.031295776367,-0.022842407227,-0.094879150391,-0.042922973633,0.072738647461,0.022933959961
0.032943725586,-0.023056030273,-0.132812500000,-0.042205810547,0.063537597656,0.024765014648
0.032867431641,-0.017700195313,-0.152465820313,-0.027343750000,0.046142578125,0.024154663086
0.018051147461,0.015563964844,-0.136932373047,-0.021759033203,0.041519165039,0.021713256836
0.013092041016,0.028701782227,-0.119277954102,-0.013916015625,0.036392211914,0.010406494141
0.004364013672,0.044158935547,-0.085937500000,-0.001434326172,0.033386230469,0.006103515625
-0.001541137695,0.049224853516,-0.101181030273,0.009414672852,0.034942626953,0.000091552734
-0.013198852539,0.055191040039,-0.165054321289,0.021209716797,0.034973144531,-0.014450073242
-0.019760131836,0.059280395508,-0.204605102539,0.021896362305,0.033233642578,-0.020111083984
-0.030426025391,0.050292968750,-0.276046752930,0.014175415039,0.020858764648,-0.028091430664
-0.029190063477,0.033996582031,-0.303207397461,0.013839721680,0.007766723633,-0.030960083008
-0.024505615234,0.004302978516,-0.315414428711,0.018692016602,-0.028152465820,-0.033767700195
-0.033432006836,-0.002365112305,-0.308380126953,0.016510009766,-0.048385620117,-0.033248901367
-0.055374145508,-0.019378662109,-0.233535766602,0.007003784180,-0.089569091797,-0.030746459961
-0.069656372070,-0.038284301758,-0.182647705078,0.007751464844,-0.108520507813,-0.029556274414
-0.109039306641,-0.134231567383,-0.064193725586,0.006576538086,-0.136978149414,-0.019180297852
-0.100952148438,-0.228454589844,0.079147338867,0.009857177734,-0.145935058594,-0.008804321289
0.195816040039,-0.186355590820,0.499938964844,0.053939819336,-0.158447265625,-0.021072387695
0.317749023438,-0.139007568359,0.499938964844,0.078033447266,-0.118286132813,-0.057495117188
0.226684570313,-0.232025146484,0.494827270508,0.037231445313,0.034774780273,-0.006393432617
0.160552978516,-0.124328613281,0.330963134766,-0.037384033203,0.052795410156,0.032623291016
0.173614501953,-0.072250366211,0.272613525391,-0.067321777344,0.081146240234,0.018753051758
0.135879516602,-0.050292968750,0.174697875977,0.003692626953,0.091445922852,0.009368896484
0.110656738281,-0.053604125977,0.123901367188,0.015701293945,0.094757080078,0.006561279297
0.064544677734,-0.045425415039,0.039352416992,-0.002593994141,0.093246459961,0.017944335938
0.054382324219,-0.047271728516,-0.022262573242,-0.013717651367,0.089477539063,0.023513793945
0.032638549805,-0.029174804688,-0.101623535156,-0.023590087891,0.069229125977,0.031005859375
0.025863647461,-0.019302368164,-0.121932983398,-0.020614624023,0.059173583984,0.031204223633
0.006149291992,0.012374877930,-0.140731811523,-0.009750366211,0.042510986328,0.028274536133
-0.002075195313,0.024688720703,-0.152999877930,-0.002441406250,0.036712646484,0.023773193359
-0.016616821289,0.037551879883,-0.178192138672,0.009292602539,0.021911621094,0.013824462891
-0.020111083984,0.045471191406,-0.211776733398,0.009735107422,0.022216796875,0.010284423828
-0.018417358398,0.047439575195,-0.257263183594,-0.010253906250,0.012100219727,0.006103515625
-0.017715454102,0.041671752930,-0.272140502930,-0.013458251953,0.000045776367,0.003463745117
-0.013809204102,0.038513183594,-0.287414550781,-0.011993408203,-0.024200439453,-0.002685546875
-0.037750244141,0.050796508789,-0.288269042969,-0.002044677734,-0.039245605469,-0.007019042969
-0.039474487305,0.044967651367,-0.272644042969,-0.000350952148,-0.074127197266,-0.017303466797
-0.052581787109,0.021179199219,-0.205627441406,0.005523681641,-0.087142944336,-0.021347045898
-0.059814453125,-0.007568359375,-0.165435791016,0.010009765625,-0.101287841797,-0.024673461914
-0.070465087891,-0.165939331055,-0.018066406250,0.015502929688,-0.126388549805,-0.022308349609
-0.029556274414,-0.253631591797,0.190155029297,0.020767211914,-0.136978149414,-0.016525268555
0.222290039063,-0.169097900391,0.499938964844,0.065353393555,-0.126510620117,-0.037704467773
0.313919067383,-0.155242919922,0.499938964844,0.075866699219,-0.064910888672,-0.052444458008
0.183792114258,-0.146667480469,0.365753173828,0.011337280273,0.038070678711,0.006591796875
0.171020507813,-0.083679199219,0.281951904297,-0.042495727539,0.045944213867,0.025390625000
0.152404785156,-0.048995971680,0.231704711914,-0.019836425781,0.067337036133,0.012222290039
0.123794555664,-0.045135498047,0.185119628906,-0.003204345703,0.078567504883,0.008239746094
0.084960937500,-0.049850463867,0.081100463867,-0.003646850586,0.091506958008,0.009277343750
0.068054199219,-0.055023193359,0.044906616211,-0.013427734375,0.089324951172,0.014816284180
0.041244506836,-0.051574707031,-0.021667480469,-0.027603149414,0.078292846680,0.025436401367
0.038040161133,-0.046325683594,-0.060089111328,-0.026962280273,0.072952270508,0.027496337891
0.030395507813,-0.033874511719,-0.124145507813,-0.013778686523,0.059783935547,0.026123046875
0.021728515625,-0.008361816406,-0.132125854492,-0.009246826172,0.051696777344,0.024642944336
0.015335083008,0.003555297852,-0.133895874023,0.002593994141,0.039703369141,0.019424438477
-0.002960205078,0.022232055664,-0.150299072266,0.006042480469,0.037094116211,0.015457153320
-0.005050659180,0.032608032227,-0.178802490234,0.006561279297,0.036270141602,0.011093139648
-0.012252807617,0.047058105469,-0.233444213867,0.002822875977,0.028701782227,0.003189086914
-0.014526367188,0.053497314453,-0.274383544922,0.002304077148,0.021865844727,-0.000213623047
-0.020523071289,0.053100585938,-0.327529907227,-0.013717651367,-0.001266479492,-0.007781982422
-0.027679443359,0.050308227539,-0.343475341797,-0.016036987305,-0.016830444336,-0.012130737305
-0.033554077148,0.020217895508,-0.316345214844,0.003692626953,-0.056518554688,-0.023895263672
-0.050415039063,0.009384155273,-0.280197143555,0.012374877930,-0.078018188477,-0.027801513672
-0.076400756836,-0.028289794922,-0.174453735352,0.006851196289,-0.115173339844,-0.030883789063
-0.088623046875,-0.067810058594,-0.119628906250,0.006805419922,-0.129333496094,-0.028228759766
-0.118453979492,-0.227096557617,0.040390014648,0.010894775391,-0.149887084961,-0.017883300781
-0.071899414063,-0.300308227539,0.242279052734,0.019256591797,-0.157089233398,-0.007308959961
0.167434692383,-0.155899047852,0.499938964844,0.056793212891,-0.147109985352,-0.028625488281
0.290130615234,-0.150711059570,0.499938964844,0.058532714844,-0.088409423828,-0.039505004883
0.184112548828,-0.130767822266,0.473266601562,-0.008682250977,0.023330688477,0.014648437500
0.159484863281,-0.096511840820,0.348342895508,-0.041549682617,0.042022705078,0.025527954102

0.088516235352,-0.056381225586,0.196853637695,0.004531860352,-0.049209594727,0.005828857422
0.133544921875,-0.065582275391,0.305709838867,-0.000320434570,-0.043716430664,0.004699707031
0.206787109375,-0.022216796875,0.497879028320,-0.003051757813,-0.022201538086,-0.002151489258
0.214828491211,-0.038711547852,0.499938964844,-0.002944946289,0.001541137695,-0.005706787109
0.148406982422,-0.128753662109,0.407180786133,-0.008728027344,0.057647705078,0.001068115234
0.095504760742,-0.151702880859,0.336486816406,-0.017013549805,0.080200195313,0.014205932617
0.001144409180,-0.125717163086,0.184158325195,-0.018630981445,0.111663818359,0.022842407227
-0.029403686523,-0.117294311523,0.139465332031,-0.014160156250,0.122314453125,0.025543212891
-0.059158325195,-0.101196289063,0.075149536133,-0.021972656250,0.131195068359,0.035018920898
-0.074493408203,-0.065704345703,-0.030441284180,-0.026123046875,0.128311157227,0.038024902344
-0.075302124023,-0.049377441406,-0.062454223633,-0.024398803711,0.119201660156,0.040206909180
-0.069229125977,-0.009872436523,-0.146255493164,-0.015106201172,0.112152099609,0.040100097656
-0.067398071289,0.011260986328,-0.169204711914,-0.011245727539,0.103393554688,0.038879394531
-0.066329956055,0.041809082031,-0.185226440430,-0.004348754883,0.085510253906,0.033096313477
-0.072494506836,0.055999755859,-0.203231811523,-0.002456665039,0.073989868164,0.027770996094
-0.094085693359,0.082443237305,-0.229934692383,-0.004638671875,0.042312622070,0.009887695313
-0.111557006836,0.080932617188,-0.262573242188,-0.002685546875,0.033233642578,0.002624511719
-0.101989746094,0.072677612305,-0.344787597656,-0.016479492188,0.035842895508,-0.003967285156
-0.106460571289,0.064376831055,-0.345092773438,-0.019989013672,0.016479492188,-0.009353637695
-0.114273071289,0.046539306641,-0.347122192383,0.010543823242,-0.022445678711,-0.023254394531
-0.109725952148,0.034988403320,-0.332473754883,0.026077270508,-0.042770385742,-0.029861450195
-0.132064819336,0.043334960938,-0.269638061523,0.030807495117,-0.085678100586,-0.039169311523
-0.140380859375,0.040618896484,-0.231002807617,0.021026611328,-0.104766845703,-0.041183471680
-0.153900146484,0.007934570313,-0.125183105469,0.005126953125,-0.142227172852,-0.032684326172
-0.174575805664,-0.058624267578,-0.029052734375,0.001907348633,-0.157302856445,-0.029479980469
0.013290405273,-0.282318115234,0.494522094727,0.045623779297,-0.167678833008,-0.032974243164
0.237884521484,-0.279006958008,0.499938964844,0.083023071289,-0.156143188477,-0.056274414063
0.357330322266,-0.342529296875,0.499938964844,0.092697143555,-0.007598876953,-0.059188842773
0.235565185547,-0.265823364258,0.326629638672,0.017242431641,0.042526245117,-0.014450073242
0.245178222656,-0.210098266602,0.184555053711,-0.039016723633,0.053649902344,0.007263183594
0.233795166016,-0.172836303711,0.173767089844,-0.005020141602,0.055892944336,0.015625000000
0.196578979492,-0.136611938477,0.160873413086,0.008758544922,0.063537597656,0.026473999023
0.128952026367,-0.083129882813,0.073364257813,-0.005264282227,0.074340820313,0.027893066406
0.103469848633,-0.067016601563,0.046783447266,-0.018447875977,0.072616577148,0.033248901367
0.080703735352,-0.059951782227,-0.049606323242,-0.043716430664,0.063629150391,0.042251586914
0.071044921875,-0.045532226563,-0.095092773438,-0.044219970703,0.057983398438,0.042617797852
0.055511474609,-0.021102905273,-0.126907348633,-0.026123046875,0.042388916016,0.039291381836
0.046432495117,-0.005889892578,-0.124023437500,-0.019592285156,0.035125732422,0.038833618164
0.028488159180,0.025878906250,-0.095581054688,-0.015243530273,0.024993896484,0.036315917969
0.020355224609,0.038101196289,-0.078979492188,-0.014297485352,0.022598266602,0.033554077148
0.017166137695,0.041717529297,-0.067840576172,-0.012344360352,0.023056030273,0.027725219727
0.011795043945,0.047958374023,-0.089645385742,-0.009674072266,0.025009155273,0.023468017578
0.006286621094,0.056747436523,-0.115798950195,0.005813598633,0.020889282227,0.011032104492
-0.004730224609,0.068161010742,-0.166412353516,0.015411376953,0.015869140625,0.005874633789
-0.008819580078,0.080200195313,-0.193115234375,0.019546508789,0.013229370117,0.000549316406
-0.020782470703,0.097625732422,-0.232070922852,0.004394531250,0.000747680664,-0.002761840820
-0.024505615234,0.098648071289,-0.237411499023,0.000091552734,-0.009445190430,-0.007156372070
-0.041793823242,0.096084594727,-0.242523193359,0.012863159180,-0.034896850586,-0.020462036133
-0.048507690430,0.099441528320,-0.235885620117,0.015594482422,-0.049407958984,-0.026840209961
-0.069488525391,0.107208251953,-0.204757690430,0.014053344727,-0.079895019531,-0.038269042969
-0.083755493164,0.105087280273,-0.172470092773,0.009384155273,-0.095779418945,-0.043273925781
-0.119735717773,0.021499633789,-0.089416503906,0.008544921875,-0.126129150391,-0.057159423828
-0.144073486328,-0.113311767578,-0.000213623047,0.012191772461,-0.137603759766,-0.059539794922
0.110046386719,-0.368576049805,0.499938964844,0.043029785156,-0.149841308594,-0.062515258789
0.321334838867,-0.376647949219,0.499938964844,0.078445434570,-0.128677368164,-0.090042114258
0.226806640625,-0.432250976562,0.498886108398,0.117279052734,0.039596557617,-0.051879882813
0.132476806641,-0.290115356445,0.215560913086,0.020431518555,0.066131591797,0.013793945313
0.202133178711,-0.230911254883,0.083923339844,-0.059844970703,0.071105957031,0.030120849609
0.179504394531,-0.189147949219,0.085418701172,-0.016479492188,0.073974609375,0.024536132813
0.143600463867,-0.151153564453,0.076126098633,-0.001449584961,0.074264526367,0.034439086914
0.089248657227,-0.096023559570,0.034347534180,-0.018829345703,0.072418212891,0.042846679688
0.073394775391,-0.076660156250,-0.008529663086,-0.034805297852,0.067810058594,0.055084228516
0.050735473633,-0.031951904297,-0.085952758789,-0.034072875977,0.060058593750,0.055999755859
0.043640136719,-0.014633178711,-0.102401733398,-0.029556274414,0.051467895508,0.053863525391
0.037063598633,0.007278442383,-0.094573974609,-0.018081665039,0.040069580078,0.045501708984
0.032043457031,0.014282226563,-0.079696655273,-0.014724731445,0.038284301758,0.043136596680
0.016296386719,0.041763305664,-0.079956054688,-0.010604858398,0.037109375000,0.039047241211
0.010269165039,0.055831909180,-0.086227416992,-0.009140014648,0.035629272461,0.036102294922
0.005920410156,0.068893432617,-0.123672485352,-0.011749267578,0.033508300781,0.026062011719
0.001770019531,0.079788208008,-0.148239135742,-0.012023925781,0.028411865234,0.020416259766
-0.009170532227,0.102981567383,-0.176422119141,-0.007064819336,0.016235351563,0.009246826172
-0.009841918945,0.103515625000,-0.185363769531,-0.004104614258,0.009643554688,0.003265380859
-0.012084960938,0.096664428711,-0.209091186523,0.000686645508,-0.003829956055,-0.009429931641
-0.022262573242,0.093612670898,-0.225433349609,0.008728027344,-0.012634277344,-0.016952514648
-0.028106689453,0.082031250000,-0.226943969727,0.028411865234,-0.036560058594,-0.030395507813
-0.037933349609,0.083831787109,-0.227798461914,0.030639648438,-0.049667358398,-0.036926269531
-0.049942016602,0.090332031250,-0.215042114258,0.027145385742,-0.080108642578,-0.051132202148
-0.072677612305,0.053482055664,-0.155929565430,0.026367187500,-0.095687866211,-0.059051513672
-0.091110229492,-0.017288208008,-0.117218017578,0.026916503906,-0.121612548828,-0.063934326172
-0.038742065430,-0.326126098633,0.152297973633,0.032394409180,-0.130920410156,-0.057739257813
0.103317260742,-0.389236450195,0.491134643555,0.046295166016,-0.124130249023,-0.059326171875
0.362213134766,-0.388076782227,0.499938964844,0.056732177734,-0.061309814453,-0.058624267578
0.299423217773,-0.366043090820,0.499938964844,0.033874511719,0.014755249023,-0.026107788086
0.221786499023,-0.233612060547,0.155731201172,-0.051727294922,0.061172485352,0.021270751953
0.223312377930,-0.198333740234,0.150344848633,-0.040390014648,0.059326171875,0.021697998047
0.163162231445,-0.131378173828,0.115722656250,0.003524780273,0.067016601563,0.028060913086
0.134689331055,-0.108795166016,0.108825683594,-0.005203247070,0.069976806641,0.030654907227
0.084777832031,-0.065750122070,0.014480590820,-0.015136718750,0.071411132813,0.041183471680
0.072952270508,-0.050750732422,-0.040786743164,-0.020187377930,0.068801879883,0.041992187500
0.062835693359,-0.029998779297,-0.090393066406,-0.019668579102,0.057876586914,0.039154052734
0.054916381836,-0.018722534180,-0.093261718750,-0.013015747070,0.050888061523,0.038681030273
0.045013427734,0.009613037109,-0.078308105469,-0.004653930664,0.041656494141,0.040054321289
0.025741577148,0.020294189453,-0.073699951172,-0.004135131836,0.040878295898,0.040344238281
0.015258789063,0.032226562500,-0.074432373047,-0.005340576172,0.040679931641,0.037017822266
-0.004333496094,0.059524536133,-0.109802246094,-0.005142211914,0.039154052734,0.032119750977
-0.010543823242,0.068939208984,-0.134170532227,-0.005081176758,0.035491943359,0.022689819336
-0.019577026367,0.080200195313,-0.186691284180,-0.004959106445,0.026123046875,0.014343261719
-0.027862548828,0.086730957031,-0.202606201172,-0.002853393555,0.021453857422,0.010131835938
-0.042877197266,0.102386474609,-0.227218627930,0.003173828125,0.009231567383,0.000671386719
-0.050720214844,0.108032226563,-0.244506835938,0.009658813477,0.000991821289,-0.005889892578
-0.072265625000,0.117858886719,-0.269424438477,0.020111083984,-0.024475097656,-0.019790649414
-0.082962036133,0.125015258789,-0.263366699219,0.021667480469,-0.041488647461,-0.027694702148
-0.107620239258,0.138336181641,-0.215240478516,0.016998291016,-0.076644897461,-0.044937133789
-0.124526977539,0.126876831055,-0.177932739258,0.012207031250,-0.092391967773,-0.052490234375

0.159286499023,-0.068435668945,0.097991943359,0.000900268555,-0.009399414063,0.001800537109
0.166061401367,-0.071044921875,0.130554199219,0.000503540039,-0.005905151367,0.002914428711
0.176452636719,-0.076675415039,0.189224243164,-0.008560180664,0.006408691406,0.008377075195
0.173767089844,-0.071548461914,0.195602416992,-0.014556884766,0.015335083008,0.010681152344
0.170150756836,-0.072631835938,0.157424926758,-0.014633178711,0.033554077148,0.011596679688
0.155502319336,-0.078323364258,0.141387939453,-0.015335083008,0.040756225586,0.012924194336
0.146469116211,-0.078781127930,0.125183105469,-0.014450073242,0.047943115234,0.013702392578
0.122543334961,-0.079727172852,0.060989379883,-0.002319335938,0.056915283203,0.013717651367
0.111022949219,-0.075210571289,0.035980224609,0.000747680664,0.058654785156,0.014083862305
0.099044799805,-0.072372436523,0.004364013672,0.005874633789,0.058746337891,0.017883300781
0.086242675781,-0.065277099609,-0.014251708984,0.006866455078,0.058990478516,0.020477294922
0.063369750977,-0.038085937500,-0.047332763672,0.005615234375,0.053466796875,0.025360107422
0.056259155273,-0.028320312500,-0.071578979492,0.004852294922,0.051223754883,0.026351928711
0.044494628906,-0.018234252930,-0.070114135742,-0.008056640625,0.049163818359,0.033218383789
0.039184570313,-0.012725830078,-0.068450927734,-0.014587402344,0.047103881836,0.036178588867
0.027938842773,0.004470825195,-0.089065551758,-0.020675659180,0.044021606445,0.037551879883
0.015365600586,0.020660400391,-0.100662231445,-0.018737792969,0.041610717773,0.035949707031
0.006027221680,0.031814575195,-0.126052856445,-0.009216308594,0.034179687500,0.029891967773
-0.022064208984,0.054199218750,-0.160125732422,-0.009735107422,0.029144287109,0.027359008789
-0.040969848633,0.067626953125,-0.175674438477,-0.007812500000,0.024536132813,0.024841308594
-0.084228515625,0.108825683594,-0.228576660156,-0.001617431641,0.010818481445,0.015991210938
-0.100936889648,0.131576538086,-0.258773803711,-0.003601074219,0.001312255859,0.011779785156
-0.130828857422,0.171249389648,-0.310302734375,-0.003860473633,-0.026153564453,-0.005630493164
-0.123291015625,0.173782348633,-0.312973022461,0.004730224609,-0.044967651367,-0.018157958984
-0.121017456055,0.151763916016,-0.253448486328,0.010009765625,-0.084548950195,-0.042785644531
-0.117553710938,0.109359741211,-0.203231811523,0.012344360352,-0.102371215820,-0.054275512695
-0.131866455078,-0.063751220703,-0.095626831055,0.019241333008,-0.129638671875,-0.069641113281
-0.126922607422,-0.221237182617,-0.003677368164,0.026138305664,-0.137481689453,-0.069381713867
0.150680541992,-0.478424072266,0.499938964844,0.090209960938,-0.141998291016,-0.060913085938
0.345703125000,-0.497375488281,0.499938964844,0.142532348633,-0.123352050781,-0.077514648438
0.284790039063,-0.479461669922,0.457626342773,0.121124267578,0.023208618164,-0.045867919922
0.203079223633,-0.330749511719,0.171218872070,0.010665893555,0.045303344727,0.011871337891
0.232269287109,-0.196472167969,0.078262329102,-0.077316284180,0.042480468750,0.039840698242
0.191177368164,-0.132095336914,0.099166870117,-0.033874511719,0.041946411133,0.039993286133
0.131210327148,-0.071914672852,0.092727661133,-0.008514404297,0.048980712891,0.036285400391
0.115280151367,-0.055130004883,0.077270507813,-0.020507812500,0.052154541016,0.038085937500
0.099792480469,-0.042144775391,-0.009246826172,-0.037475585938,0.050170898438,0.043823242188
0.082992553711,-0.030181884766,-0.040557861328,-0.038879394531,0.046569824219,0.043273925781
0.077239990234,-0.024963378906,-0.068618774414,-0.029891967773,0.049407958984,0.033737182617
0.067733764648,-0.012207031250,-0.086364746094,-0.022979736328,0.044525146484,0.033370971680
0.056259155273,-0.000564575195,-0.077758789063,-0.014877319336,0.038177490234,0.036148071289
0.041992187500,0.010620117188,-0.054473876953,-0.013946533203,0.035858154297,0.036224365234
0.034561157227,0.016479492188,-0.059692382813,-0.017547607422,0.036590576172,0.035903930664
0.020324707031,0.035125732422,-0.099594116211,-0.018661499023,0.036651611328,0.031387329102
0.015609741211,0.042388916016,-0.127105712891,-0.010330200195,0.033630371094,0.028228759766
0.002853393555,0.056213378906,-0.157394409180,0.000915527344,0.020858764648,0.022109985352
-0.007141113281,0.064300537109,-0.165771484375,0.005142211914,0.013870239258,0.019470214844
-0.024780273438,0.093154907227,-0.187316894531,0.006210327148,0.001159667969,0.014953613281
-0.032577514648,0.109985351563,-0.193267822266,0.003936767578,-0.006576538086,0.009750366211
-0.043655395508,0.138809204102,-0.204879760742,0.011886596680,-0.025421142578,-0.005401611328
-0.056808471680,0.158523559570,-0.208770751953,0.019180297852,-0.036071777344,-0.015350341797
-0.063095092773,0.170806884766,-0.197601318359,0.020828247070,-0.059707641602,-0.038345336914
-0.076980590820,0.179351806641,-0.156982421875,0.018890380859,-0.069320678711,-0.051544189453
-0.075912475586,0.144531250000,-0.143341064453,0.018417358398,-0.086791992188,-0.078262329102
-0.084686279297,-0.063919067383,-0.080841064453,0.028305053711,-0.098510742188,-0.085769653320
-0.050323486328,-0.261489868164,0.044830322266,0.042572021484,-0.104568481445,-0.088256835938
0.277832031250,-0.499938964844,0.499938964844,0.081588745117,-0.094665527344,-0.086441040039
0.413467407227,-0.499938964844,0.499938964844,0.099426269531,-0.050277709961,-0.084411621094
0.239639282227,-0.404891967773,0.206542968750,0.037582397461,0.057296752930,-0.016738891602
0.223785400391,-0.318130493164,0.023025512695,-0.038513183594,0.057937622070,0.020401000977
0.227615356445,-0.237106323242,0.042495727539,-0.043930053711,0.042968750000,0.035705566406
0.181655883789,-0.169982910156,0.047454833984,-0.013427734375,0.045303344727,0.044479370117
0.115707397461,-0.085067749023,0.021255493164,-0.015213012695,0.045562744141,0.048599243164
0.090118408203,-0.050689697266,0.002975463867,-0.020523071289,0.042129516602,0.053161621094
0.069946289063,-0.022491455078,-0.051040649414,-0.039657592773,0.034973144531,0.059005737305
0.048553466797,0.017730712891,-0.070770263672,-0.041229248047,0.032974243164,0.056106567383
0.049636840820,0.020385742188,-0.083068847656,-0.036895751953,0.036590576172,0.040069580078
0.043807983398,0.021072387695,-0.048751831055,-0.026611328125,0.032333374023,0.039443969727
0.032470703125,0.029418945313,-0.051925659180,-0.015365600586,0.031433105469,0.038543701172
0.013763427734,0.052093505859,-0.090118408203,-0.010894775391,0.035476684570,0.031723022461
0.009521484375,0.059799194336,-0.116943359375,-0.010681152344,0.034973144531,0.026931762695
0.005416870117,0.063446044922,-0.153259277344,-0.007369995117,0.027633666992,0.017700195313
0.002166748047,0.068099975586,-0.164276123047,-0.003997802734,0.022308349609,0.014465332031
-0.003601074219,0.076004028320,-0.186172485352,0.003479003906,0.009567260742,0.008468627930
-0.010574340820,0.081909179688,-0.194335937500,0.002838134766,0.001632690430,0.005035400391
-0.020553588867,0.093215942383,-0.212951660156,0.008514404297,-0.018249511719,-0.005584716797
-0.027572631836,0.096115112305,-0.212356567383,0.014526367188,-0.030410766602,-0.012039184570
-0.040832519531,0.114410400391,-0.175872802734,0.016693115234,-0.055892944336,-0.024291992188
-0.050033569336,0.133483886719,-0.162216186523,0.016540527344,-0.067047119141,-0.031677246094
-0.066162109375,0.117050170898,-0.114135742188,0.020889282227,-0.090118408203,-0.052856445313
-0.077987670898,0.058120727539,-0.075363159180,0.025253295898,-0.099288940430,-0.062911987305
-0.042251586914,-0.224746704102,0.110626220703,0.044204711914,-0.110580444336,-0.074050903320
0.076599121094,-0.343795776367,0.393051147461,0.062194824219,-0.113204956055,-0.080383300781
0.255599975586,-0.415481567383,0.499938964844,0.112762451172,-0.048034667969,-0.090225219727
0.304809570313,-0.480789184570,0.499786376953,0.102203369141,0.020675659180,-0.064834594727
0.220214843750,-0.394393920898,0.247390747070,-0.034057617188,0.060867309570,0.022796630859
0.229858398438,-0.279632568359,0.041458129883,-0.066146850586,0.060180664063,0.030990600586
0.217666625977,-0.231170654297,0.053649902344,-0.050094604492,0.057907104492,0.031295776367
0.147232055664,-0.143722534180,0.035949707031,-0.004714965820,0.058486938477,0.037322998047
0.123703002930,-0.108764648438,0.022781372070,-0.014511108398,0.056488037109,0.042968750000
0.095703125000,-0.068374633789,-0.021911621094,-0.035415649414,0.048721313477,0.054306030273
0.089279174805,-0.054412841797,-0.034362792969,-0.035842895508,0.045074462891,0.054901123047
0.079132080078,-0.038650512695,-0.059143066406,-0.027038574219,0.048110961914,0.046585083008
0.068939208984,-0.026992797852,-0.046524047852,-0.019790649414,0.045166015625,0.046218872070
0.042602539063,0.008590698242,-0.062088012695,-0.008697509766,0.039260864258,0.049316406250
0.027908325195,0.030303955078,-0.072402954102,-0.010360717773,0.038894653320,0.048629760742
0.020568847656,0.044174194336,-0.095916748047,-0.011062622070,0.034973144531,0.040649414063
0.009277343750,0.060882568359,-0.099304199219,-0.010833740234,0.031890869141,0.035217285156
0.006652832031,0.062973022461,-0.107818603516,-0.010116577148,0.024810791016,0.027908325195
-0.009109497070,0.073593139648,-0.127731323242,-0.009689331055,0.021026611328,0.025329589844
-0.021865844727,0.082687377930,-0.136444091797,-0.008117675781,0.018463134766,0.022735595703
-0.046234130859,0.101104736328,-0.166442871094,0.005432128906,0.012466430664,0.011779785156
-0.048202514648,0.112213134766,-0.196090698242,0.015258789063,0.007797241211,0.004806518555
-0.070236206055,0.134902954102,-0.235214233398,0.014099121094,-0.010452270508,-0.009887695313

0.172119140625,-0.080245971680,0.068054199219,0.007568359375,-0.030609130859,-0.001190185547
0.189559936523,-0.108779907227,0.156417846680,0.006408691406,-0.031463623047,-0.002868652344
0.257949829102,-0.187698364258,0.482315063477,0.007934570313,-0.008270263672,-0.005508422852
0.259765625000,-0.209304809570,0.499938964844,0.013519287109,0.021789550781,-0.000564575195
0.119323730469,-0.136734008789,0.275558471680,0.003646850586,0.076583862305,0.035110473633
0.093902587891,-0.116424560547,0.139816284180,-0.005966186523,0.089752197266,0.038803100586
0.081787109375,-0.111297607422,0.057983398438,-0.005798339844,0.098190307617,0.034439086914
0.060180664063,-0.104980468750,-0.009857177734,-0.002761840820,0.096893310547,0.034927368164
0.047286987305,-0.091705322266,-0.030670166016,0.002914428711,0.090667724609,0.040603637695
0.009582519531,-0.054397583008,-0.072723388672,0.016052246094,0.086120605469,0.044937133789
-0.005126953125,-0.037078857422,-0.092864990234,0.005111694336,0.083099365234,0.051040649414
-0.017120361328,-0.005630493164,-0.156066894531,-0.021865844727,0.071929931641,0.056365966797
-0.016921997070,0.004806518555,-0.170120239258,-0.024932861328,0.064453125000,0.054992675781
-0.025222778320,0.022674560547,-0.181716918945,-0.028152465820,0.049346923828,0.049957275391
-0.028030395508,0.025482177734,-0.190124511719,-0.027099609375,0.042160034180,0.046081542969
-0.047027587891,0.030654907227,-0.174789428711,-0.023834228516,0.027252197266,0.039443969727
-0.064590454102,0.034881591797,-0.169830322266,-0.019302368164,0.020080566406,0.036209106445
-0.117813110352,0.072998046875,-0.218948364258,-0.007232666016,0.004928588867,0.029937744141
-0.147506713867,0.111511230469,-0.263061523438,-0.007095336914,-0.005340576172,0.029891967773
-0.201431274414,0.187469482422,-0.312515258789,-0.007598876953,-0.034561157227,0.018264770508
-0.206283569336,0.195846557617,-0.305984497070,0.001846313477,-0.052062988281,0.005081176758
-0.211898803711,0.199935913086,-0.266967773438,0.020935058594,-0.082763671875,-0.025588989258
-0.209045410156,0.205245971680,-0.172637939453,0.024490356445,-0.092529296875,-0.043182373047
-0.192092895508,0.161758422852,-0.145492553711,0.036254882813,-0.103744506836,-0.082794189453
-0.182540893555,-0.032913208008,-0.105163574219,0.045455932617,-0.108612060547,-0.097061157227
-0.153121948242,-0.223892211914,-0.049972534180,0.055603027344,-0.111755371094,-0.104476928711
0.119003295898,-0.499938964844,0.433776855469,0.089340209961,-0.109024047852,-0.089050292969
0.384887695313,-0.499938964844,0.499938964844,0.096221923828,-0.095306396484,-0.079284667969
0.381683349609,-0.486923217773,0.466903686523,0.052780151367,0.021057128906,-0.040725708008
0.300521850586,-0.373291015625,0.145416259766,-0.021331787109,0.044036865234,0.003067016602
0.303192138672,-0.261413574219,0.042083740234,-0.040390014648,0.033737182617,0.023208618164
0.228485107422,-0.154663085938,0.063644409180,0.002944946289,0.028900146484,0.045257568359
0.162689208984,-0.050659179688,0.064971923828,-0.014923095703,0.032073974609,0.049453735352
0.134857177734,-0.027526855469,0.045486450195,-0.018875122070,0.032867431641,0.043518066406
0.118606567383,-0.022064208984,0.024322509766,-0.020675659180,0.032180786133,0.039474487305
0.099914550781,-0.020339965820,-0.017181396484,-0.026199340820,0.031677246094,0.040374755859
0.091262817383,-0.016723632813,-0.034317016602,-0.025833129883,0.029418945313,0.039749145508
0.067367553711,0.001739501953,-0.070678710938,-0.017929077148,0.034255981445,0.035980224609
0.064834594727,0.004714965820,-0.065628051758,-0.017105102539,0.034255981445,0.035171508789
0.041259765625,0.023117065430,-0.060333251953,-0.010406494141,0.032592773438,0.036087036133
0.034240722656,0.031982421875,-0.067413330078,-0.010375976563,0.034317016602,0.033462524414
0.027511596680,0.038452148438,-0.081466674805,-0.010589599609,0.031433105469,0.026763916016
0.022232055664,0.040420532227,-0.092376708984,-0.008865356445,0.028564453125,0.023010253906
0.017303466797,0.046295166016,-0.114562988281,-0.003952026367,0.018508911133,0.019882202148
0.005386352539,0.056045532227,-0.122238159180,-0.003417968750,0.014739990234,0.020324707031
-0.003707885742,0.062438964844,-0.118759155273,-0.003784179688,0.010910034180,0.019195556641
-0.019287109375,0.076004028320,-0.146026611328,0.006317138672,0.002899169922,0.013580322266
-0.029525756836,0.097167968750,-0.165054321289,0.009902954102,-0.002639770508,0.012374877930
-0.064315795898,0.153945922852,-0.206649780273,0.012786865234,-0.018020629883,0.003799438477
-0.074615478516,0.174041748047,-0.199859619141,0.014221191406,-0.028213500977,-0.003967285156
-0.094635009766,0.235198974609,-0.181747436523,0.018798828125,-0.049728393555,-0.025726318359
-0.097137451172,0.246139526367,-0.171920776367,0.020965576172,-0.060791015625,-0.043441772461
-0.097686767578,0.225524902344,-0.136856079102,0.024139404297,-0.079116821289,-0.085464477539
-0.119064331055,0.061538696289,-0.130264282227,0.032958984375,-0.087799072266,-0.101455688477
-0.131958007813,-0.110351562500,-0.103851318359,0.038146972656,-0.103332519531,-0.114120483398
0.051757812500,-0.499938964844,0.418289184570,0.049377441406,-0.124893188477,-0.130462646484
0.238616943359,-0.499938964844,0.499938964844,0.086059570313,-0.132171630859,-0.161392211914
0.269073486328,-0.499938964844,0.355056762695,0.158859252930,0.032241821289,-0.085632324219
0.207061767578,-0.499938964844,0.021438598633,0.052917480469,0.054763793945,0.005722045898
0.232971191406,-0.361206054688,0.021911621094,-0.077880859375,0.036224365234,0.068878173828
0.191955566406,-0.288970947266,0.059478759766,-0.036270141602,0.039581298828,0.067459106445
0.135528564453,-0.126159667969,0.042602539063,0.009231567383,0.047485351563,0.082992553711
0.076858520508,-0.081024169922,0.036346435547,-0.003356933594,0.050949096680,0.088043212891
0.064819335938,-0.040588378906,-0.001129150391,-0.018768310547,0.053070068359,0.092285156250
0.029983520508,0.042449951172,-0.072860717773,-0.051315307617,0.044296264648,0.093460083008
0.033554077148,0.054794311523,-0.080017089844,-0.055664062500,0.040802001953,0.081405639648
0.025100708008,0.064132690430,-0.070266723633,-0.029769897461,0.037841796875,0.056320190430
0.021194458008,0.062332153320,-0.064071655273,-0.020721435547,0.035629272461,0.050201416016
0.013565063477,0.060714721680,-0.060531616211,-0.020431518555,0.035430908203,0.039886474609
0.012374877930,0.063125610352,-0.075561523438,-0.024902343750,0.034683227539,0.035797119141
0.008850097656,0.069488525391,-0.095718383789,-0.032928466797,0.029373168945,0.029052734375
0.006988525391,0.078811645508,-0.127288818359,-0.033416748047,0.026580810547,0.023559570313
0.002685546875,0.080795288086,-0.134567260742,-0.022430419922,0.021362304688,0.016571044922
-0.015380859375,0.091323852539,-0.140914916992,-0.001937866211,0.011108398438,0.005233764648
-0.016586303711,0.091247558594,-0.155029296875,0.004318237305,0.007202148438,-0.000457763672
-0.030273437500,0.108551025391,-0.192016601563,0.021682739258,-0.004821777344,-0.011886596680
-0.038864135742,0.118148803711,-0.195983886719,0.028015136719,-0.012725830078,-0.016983032227
-0.045333862305,0.120544433594,-0.194839477539,0.031158447266,-0.030487060547,-0.027801513672
-0.053405761719,0.138275146484,-0.166458129883,0.031494140625,-0.039871215820,-0.034652709961
-0.058532714844,0.149032592773,-0.146972656250,0.033813476563,-0.048187255859,-0.042358398438
-0.058563232422,0.127532958984,-0.098236083984,0.033813476563,-0.062881469727,-0.066543579102
-0.059173583984,0.075881958008,-0.070266723633,0.036056518555,-0.067520141602,-0.079299926758
-0.019805908203,-0.147689819336,0.024826049805,0.041000366211,-0.072189331055,-0.107986450195
0.049209594727,-0.324508666992,0.150497436523,0.043731689453,-0.074676513672,-0.124496459961
0.161407470703,-0.499786376953,0.499938964844,0.062179565430,-0.056930541992,-0.134963989258
0.370025634766,-0.499938964844,0.461776733398,0.059051513672,-0.009475708008,-0.096771240234
0.322570800781,-0.499938964844,0.195541381836,0.028060913086,0.045043945313,0.018035888672
0.263000488281,-0.346130371094,-0.031356811523,-0.026855468750,0.045593261719,0.042160034180
0.215469360352,-0.252456665039,-0.024581909180,-0.010116577148,0.039047241211,0.054321289063
0.142517089844,-0.136978149414,0.035888671875,0.007919311523,0.024673461914,0.062362670898
0.122558593750,-0.104629516602,0.050079345703,-0.006851196289,0.027175903320,0.065368652344
0.098281860352,-0.037948608398,0.000350952148,-0.020904541016,0.033004760742,0.070175170898
0.066787719727,-0.012893676758,-0.030700683594,-0.019821166992,0.031600952148,0.069229125977
0.061172485352,-0.003601074219,-0.041992187500,-0.016098022461,0.026824951172,0.061553955078
0.047698974609,0.006790161133,-0.019683837891,-0.011276245117,0.021438598633,0.059997558594
0.040100097656,0.018859863281,-0.030380249023,-0.006134033203,0.021865844727,0.060089111328
0.021133422852,0.051040649414,-0.055023193359,-0.009674072266,0.020599365234,0.057861328125
0.014099121094,0.063491821289,-0.057098388672,-0.016540527344,0.019943237305,0.055877685547
0.005386352539,0.074691772461,-0.074981689453,-0.024505615234,0.018081665039,0.050384521484
-0.006179809570,0.095550537109,-0.097305297852,-0.024353027344,0.016601562500,0.045104980469
-0.012969970703,0.101715087891,-0.119583129883,-0.022811889648,0.015289306641,0.037643432617
-0.023284912109,0.118072509766,-0.154495239258,-0.013153076172,0.010620117188,0.020767211914
-0.032241821289,0.133850097656,-0.162429809570,-0.006652832031,0.007232666016,0.014678955078
-0.045394897461,0.159393310547,-0.189514160156,0.008377075195,-0.002716064453,-0.001190185547

0.169326782227,-0.227828979492,0.230590820313,-0.003753662109,-0.051116943359,-0.030700683594
0.233276367188,-0.298400878906,0.481369018555,-0.014099121094,-0.034851074219,-0.023040771484
0.226776123047,-0.336730957031,0.497848510742,0.002975463867,0.040206909180,0.003234863281
0.104766845703,-0.308731079102,0.305236816406,0.011932373047,0.070343017578,0.023208618164
0.080139160156,-0.264450073242,-0.008483886719,0.024337768555,0.094604492188,0.053283691406
0.075988769531,-0.219116210938,-0.078170776367,0.029129028320,0.089630126953,0.068222045898
0.073120117188,-0.179061889648,-0.094848632813,0.006683349609,0.071090698242,0.086135864258
0.022216796875,-0.099349975586,-0.105621337891,-0.006500244141,0.064407348633,0.090972900391
-0.004806518555,-0.051940917969,-0.128372192383,-0.020401000977,0.047012329102,0.096603393555
-0.022003173828,0.008514404297,-0.138763427734,-0.035537719727,0.040145874023,0.098052978516
-0.036651611328,0.036331176758,-0.149826049805,-0.052017211914,0.035049438477,0.097198486328
-0.061706542969,0.104843139648,-0.183242797852,-0.068603515625,0.025207519531,0.088973999023
-0.071151733398,0.129867553711,-0.198150634766,-0.063323974609,0.019897460938,0.081939697266
-0.095764160156,0.150253295898,-0.193847656250,-0.051254272461,0.007522583008,0.065704345703
-0.103805541992,0.151596069336,-0.182601928711,-0.042922973633,0.002334594727,0.055404663086
-0.120620727539,0.172164916992,-0.181976318359,-0.004913330078,-0.006622314453,0.017532348633
-0.127517700195,0.191238403320,-0.178314208984,0.014404296875,-0.012817382813,0.002685546875
-0.127563476563,0.206985473633,-0.146224975586,0.043762207031,-0.023269653320,-0.025939941406
-0.123565673828,0.223861694336,-0.124877929688,0.055206298828,-0.026260375977,-0.045242309570
-0.122573852539,0.228607177734,-0.106369018555,0.063262939453,-0.025939941406,-0.089584350586
-0.117233276367,0.191665649414,-0.110900878906,0.059906005859,-0.025390625000,-0.109878540039
-0.114440917969,-0.004959106445,-0.123413085938,0.045989990234,-0.030761718750,-0.133590698242
-0.075027465820,-0.217926025391,-0.093856811523,0.042709350586,-0.030380249023,-0.135406494141
0.063400268555,-0.499938964844,0.474212646484,0.025711059570,-0.033554077148,-0.097778320313
0.442382812500,-0.499938964844,0.499938964844,0.043014526367,-0.007629394531,-0.083160400391
0.433319091797,-0.499938964844,0.266677856445,0.017593383789,0.052581787109,-0.018432617188
0.342773437500,-0.433105468750,-0.250045776367,-0.026367187500,0.037933349609,0.015762329102
0.304031372070,-0.336502075195,-0.198333740234,-0.041122436523,0.015777587891,0.040054321289
0.175155639648,-0.141708374023,-0.061721801758,-0.007263183594,0.000350952148,0.065719604492
0.145721435547,-0.102539062500,-0.022979736328,-0.007278442383,-0.000442504883,0.064697265625
0.099136352539,-0.042037963867,-0.013061523438,-0.018981933594,-0.001815795898,0.064041137695
0.079055786133,-0.007141113281,-0.028717041016,-0.025680541992,-0.003936767578,0.070419311523
0.053375244141,0.047866821289,-0.047271728516,-0.041519165039,0.005432128906,0.067184448242
0.053192138672,0.058212280273,-0.051498413086,-0.037445068359,0.012008666992,0.058670043945
0.041397094727,0.072982788086,-0.062896728516,-0.010055541992,0.010131835938,0.046905517578
0.035751342773,0.078445434570,-0.072296142578,-0.005554199219,0.012893676758,0.041397094727
0.032501220703,0.078063964844,-0.072036743164,-0.001953125000,0.016754150391,0.029846191406
0.032485961914,0.063858032227,-0.068237304688,-0.001312255859,0.017608642578,0.025024414063
0.029495239258,0.061340332031,-0.075820922852,-0.002639770508,0.018005371094,0.016098022461
0.023010253906,0.063674926758,-0.098571777344,-0.001419067383,0.010574340820,0.014953613281
0.014221191406,0.067062377930,-0.099731445313,0.000076293945,0.003799438477,0.012878417969
-0.002334594727,0.084243774414,-0.110916137695,0.002426147461,-0.007232666016,0.009033203125
-0.012023925781,0.102294921875,-0.114837646484,0.005477905273,-0.012695312500,0.000930786133
