ax,ay,az,gx,gy,gz
0.038955688477,-0.041534423828,0.232528686523,-0.009933471680,0.002487182617,0.023696899414
0.036163330078,-0.052200317383,0.219421386719,-0.007232666016,0.010498046875,0.022262573242
0.022644042969,-0.050292968750,0.205245971680,0.003585815430,0.020339965820,0.024307250977
0.006256103516,-0.031387329102,0.210098266602,0.011245727539,0.024368286133,0.026931762695
0.011825561523,0.009201049805,0.147094726563,0.040725708008,0.035766601563,0.026641845703
0.027206420898,0.020492553711,0.131256103516,0.033065795898,0.035797119141,0.022979736328
0.047637939453,0.015975952148,0.121887207031,0.027435302734,0.024200439453,0.011276245117
0.062042236328,-0.034271240234,0.135803222656,0.024810791016,0.020462036133,0.007049560547
0.065002441406,-0.062927246094,0.152969360352,0.020919799805,0.016082763672,0.006103515625
0.098556518555,-0.106430053711,0.179901123047,0.015701293945,0.011886596680,0.014755249023
0.076141357422,-0.126785278320,0.202697753906,0.013183593750,0.008834838867,0.021713256836
0.032302856445,-0.128570556641,0.316955566406,-0.010253906250,0.003585815430,0.039031982422
0.003524780273,-0.115173339844,0.336425781250,-0.001342773438,0.017196655273,0.049346923828
-0.005493164063,-0.073806762695,0.325180053711,0.007522583008,0.056198120117,0.072143554688
-0.058380126953,0.043869018555,0.271926879883,0.010086059570,0.068481445313,0.079711914063
-0.080337524414,0.089599609375,0.222076416016,0.013061523438,0.079223632813,0.081192016602
-0.076065063477,0.185226440430,0.149841308594,-0.039840698242,0.100234985352,0.067214965820
-0.057052612305,0.197784423828,0.087356567383,-0.045822143555,0.109771728516,0.048660278320
-0.026885986328,0.173690795898,-0.000411987305,-0.041091918945,0.102340698242,0.005798339844
-0.007873535156,0.148727416992,-0.017791748047,-0.037246704102,0.087249755859,-0.010299682617
0.000411987305,0.094863891602,-0.039047241211,-0.028335571289,0.054641723633,-0.027343750000
0.009613037109,0.080627441406,-0.037353515625,-0.021850585938,0.036712646484,-0.032104492188
0.023376464844,0.060440063477,-0.049041748047,0.015945434570,-0.004486083984,-0.038848876953
0.024490356445,0.055313110352,0.039581298828,0.059555053711,-0.021331787109,-0.039688110352
-0.002990722656,0.035049438477,0.081604003906,0.083251953125,-0.028411865234,-0.045547485352
-0.017883300781,-0.012451171875,0.095291137695,0.086090087891,-0.012405395508,-0.049468994141
-0.037780761719,-0.006759643555,0.088653564453,0.079315185547,0.000808715820,-0.043533325195
-0.023254394531,0.062057495117,0.045303344727,0.073394775391,0.020019531250,-0.030380249023
0.004959106445,0.085891723633,-0.004669189453,0.060897827148,0.029174804688,-0.033859252930
-0.009048461914,0.119201660156,-0.096481323242,0.093795776367,0.034194946289,-0.060348510742
-0.073562622070,0.143890380859,-0.094848632813,0.105529785156,0.028961181641,-0.076293945313
-0.089126586914,0.160644531250,-0.087493896484,0.114440917969,0.026611328125,-0.110549926758
-0.162506103516,0.170654296875,-0.010360717773,0.053207397461,0.031372070313,-0.129852294922
-0.194610595703,0.135009765625,-0.015823364258,0.050765991211,0.042617797852,-0.154144287109
-0.227722167969,0.047164916992,-0.036544799805,0.015914916992,0.065429687500,-0.185607910156
-0.275314331055,-0.011978149414,-0.087493896484,0.010940551758,0.079177856445,-0.197189331055
-0.296783447266,-0.118667602539,-0.198165893555,-0.002578735352,0.088592529297,-0.203506469727
-0.298217773438,-0.168411254883,-0.249465942383,-0.015823364258,0.081420898438,-0.198928833008
-0.254913330078,-0.249603271484,-0.312637329102,-0.050079345703,0.042160034180,-0.173492431641
-0.237670898438,-0.279800415039,-0.294265747070,-0.065689086914,0.009384155273,-0.154235839844
-0.230361938477,-0.288009643555,-0.237503051758,-0.074691772461,-0.055526733398,-0.103118896484
-0.216430664063,-0.242507934570,-0.094421386719,-0.070266723633,-0.074111938477,-0.080642700195
-0.203598022461,-0.213668823242,-0.046264648438,-0.068542480469,-0.079345703125,-0.051940917969
-0.197769165039,-0.205749511719,-0.035736083984,-0.057037353516,-0.069305419922,-0.048309326172
-0.196655273438,-0.197357177734,-0.053039550781,-0.058242797852,-0.063888549805,-0.039474487305
-0.211013793945,-0.174530029297,-0.078475952148,-0.069168090820,-0.062850952148,-0.018096923828
-0.219223022461,-0.161712646484,-0.085617065430,-0.062103271484,-0.066909790039,-0.008743286133
-0.225143432617,-0.112304687500,-0.057022094727,-0.041793823242,-0.083221435547,0.010208129883
-0.232971191406,-0.089401245117,-0.037796020508,-0.036285400391,-0.089340209961,0.016845703125
-0.265686035156,-0.083312988281,0.007400512695,-0.035156250000,-0.095428466797,0.020217895508
-0.260086059570,-0.113632202148,0.040786743164,-0.029449462891,-0.100967407227,0.017822265625
-0.269027709961,-0.178482055664,0.122802734375,-0.025405883789,-0.099060058594,0.018173217773
-0.258514404297,-0.214141845703,0.146896362305,-0.023056030273,-0.091217041016,0.020874023438
-0.246994018555,-0.234359741211,0.166748046875,-0.029113769531,-0.077102661133,0.040832519531
-0.210159301758,-0.221649169922,0.144271850586,-0.039459228516,-0.037979125977,0.058639526367
-0.207412719727,-0.192321777344,0.106094360352,-0.042831420898,-0.018035888672,0.071884155273
-0.215270996094,-0.171905517578,0.070434570313,-0.039840698242,0.002716064453,0.086914062500
-0.219314575195,-0.165527343750,0.060424804688,-0.022171020508,0.007186889648,0.092758178711
-0.206665039063,-0.105941772461,0.062118530273,0.011489868164,0.009231567383,0.106323242188
-0.185836791992,-0.069015502930,0.060821533203,0.019897460938,0.009857177734,0.111053466797
-0.164916992188,-0.038803100586,0.061157226563,0.013641357422,0.012557983398,0.108078002930
-0.127990722656,-0.000961303711,0.035324096680,0.010116577148,0.015457153320,0.099960327148
-0.101959228516,0.003524780273,0.023391723633,0.003265380859,0.015213012695,0.089218139648
-0.065963745117,-0.030944824219,0.043579101563,-0.010238647461,0.008850097656,0.062164306641
-0.062744140625,-0.054061889648,0.059783935547,-0.008773803711,0.008850097656,0.052246093750
-0.050598144531,-0.064636230469,0.083648681641,0.015304565430,0.011978149414,0.045654296875
-0.041961669922,-0.066635131836,0.098724365234,0.019058227539,0.014480590820,0.043563842773
-0.044021606445,-0.068710327148,0.114212036133,0.015777587891,0.027694702148,0.039154052734
-0.056671142578,-0.079742431641,0.128723144531,0.008789062500,0.036804199219,0.037155151367
-0.063629150391,-0.088058471680,0.119354248047,0.001724243164,0.049316406250,0.034988403320
-0.074386596680,-0.080947875977,0.059249877930,-0.018096923828,0.080429077148,0.037322998047
-0.070175170898,-0.069015502930,0.021774291992,-0.031387329102,0.095779418945,0.039657592773
-0.074478149414,-0.057083129883,-0.055847167969,-0.051467895508,0.123947143555,0.036300659180
-0.079803466797,-0.057968139648,-0.088363647461,-0.052017211914,0.131256103516,0.031494140625
-0.076583862305,-0.059692382813,-0.117202758789,-0.046096801758,0.132156372070,0.020996093750
-0.061386108398,-0.060562133789,-0.196472167969,-0.045166015625,0.129486083984,0.015487670898
-0.057693481445,-0.070877075195,-0.237503051758,-0.051971435547,0.124221801758,0.007812500000
-0.062118530273,-0.128540039063,-0.288940429688,-0.054550170898,0.098129272461,-0.014465332031
-0.045364379883,-0.159164428711,-0.297134399414,-0.041488647461,0.075027465820,-0.020904541016
-0.007858276367,-0.190917968750,-0.236892700195,-0.012268066406,0.015274047852,-0.015075683594
0.004058837891,-0.187835693359,-0.185180664063,-0.000274658203,-0.010437011719,-0.008193969727
-0.000335693359,-0.155075073242,-0.073913574219,-0.005752563477,-0.037414550781,0.007186889648
-0.007247924805,-0.138824462891,-0.031784057617,-0.008972167969,-0.040100097656,0.011734008789
0.003250122070,-0.123031616211,0.021850585938,-0.017272949219,-0.033355712891,0.014297485352
0.013214111328,-0.121932983398,0.037704467773,-0.019866943359,-0.026336669922,0.013122558594
0.024902343750,-0.123992919922,0.042663574219,-0.019363403320,-0.008193969727,0.012100219727
0.030471801758,-0.112350463867,0.036727905273,-0.017089843750,0.001220703125,0.012420654297
0.043289184570,-0.109954833984,0.025024414063,-0.013732910156,0.009063720703,0.013198852539
0.057296752930,-0.124908447266,-0.009002685547,-0.021133422852,0.020431518555,0.013748168945
0.028182983398,-0.129623413086,-0.017684936523,-0.022735595703,0.021728515625,0.014114379883
0.021972656250,-0.124145507813,-0.032974243164,-0.016387939453,0.019302368164,0.015808105469
0.030502319336,-0.114593505859,-0.034286499023,-0.011413574219,0.015701293945,0.016342163086
0.032760620117,-0.105621337891,-0.033325195313,-0.002838134766,0.006011962891,0.015197753906
0.031951904297,-0.092803955078,-0.017913818359,-0.001342773438,0.002182006836,0.013259887695
0.040206909180,-0.090789794922,-0.011505126953,0.002395629883,-0.001022338867,0.010238647461
0.044036865234,-0.097854614258,-0.004119873047,0.011215209961,-0.006195068359,0.001998901367
0.044464111328,-0.101745605469,-0.002548217773,0.012405395508,-0.007324218750,-0.001022338867
0.042770385742,-0.111083984375,0.002487182617,0.010330200195,-0.007888793945,-0.004714965820
0.041870117188,-0.115921020508,0.002029418945,0.009521484375,-0.007446289063,-0.005752563477
0.039428710938,-0.123458862305,0.004501342773,0.007156372070,-0.006988525391,-0.005874633789
0.037689208984,-0.125259399414,0.006454467773,0.007446289063,-0.007095336914,-0.005432128906
0.036682128906,-0.126327514648,0.007293701172,0.007583618164,-0.006713867188,-0.004714965820
0.035430908203,-0.128967285156,0.001296997070,0.008316040039,-0.005081176758,-0.003738403320
0.035339355469,-0.129791259766,-0.001449584961,0.009094238281,-0.004745483398,-0.003173828125

-0.126846313477,-0.137069702148,0.047241210938,0.010925292969,-0.065200805664,-0.115722656250
-0.125000000000,-0.170242309570,0.059295654297,0.006591796875,-0.064956665039,-0.116073608398
-0.113342285156,-0.209854125977,0.078216552734,0.007125854492,-0.061630249023,-0.104537963867
-0.113052368164,-0.216033935547,0.091064453125,0.008850097656,-0.058929443359,-0.095733642578
-0.102554321289,-0.207092285156,0.138504028320,0.007034301758,-0.050247192383,-0.078475952148
-0.112442016602,-0.199447631836,0.160293579102,0.006866455078,-0.040603637695,-0.071838378906
-0.105911254883,-0.177383422852,0.186950683594,0.011199951172,-0.018417358398,-0.060180664063
-0.121353149414,-0.161270141602,0.203216552734,0.009643554688,-0.006683349609,-0.056991577148
-0.128250122070,-0.106475830078,0.223175048828,0.019149780273,0.015945434570,-0.049530029297
-0.156372070313,-0.078918457031,0.229644775391,0.020233154297,0.029296875000,-0.047866821289
-0.174194335938,-0.055908203125,0.227661132813,0.018157958984,0.064559936523,-0.053665161133
-0.224960327148,-0.049804687500,0.192977905273,0.012466430664,0.080291748047,-0.059997558594
-0.244552612305,-0.057876586914,0.162841796875,0.014984130859,0.097000122070,-0.064071655273
-0.269989013672,-0.071853637695,0.071762084961,0.027984619141,0.124389648438,-0.066421508789
-0.277450561523,-0.079986572266,0.026672363281,0.032455444336,0.131469726563,-0.065734863281
-0.269104003906,-0.110855102539,-0.050659179688,0.041320800781,0.132278442383,-0.062240600586
-0.259628295898,-0.130416870117,-0.083328247070,0.047286987305,0.127426147461,-0.058731079102
-0.226806640625,-0.173767089844,-0.128707885742,0.061004638672,0.109619140625,-0.047592163086
-0.212112426758,-0.208374023438,-0.140563964844,0.072006225586,0.096267700195,-0.041732788086
-0.191314697266,-0.272491455078,-0.175521850586,0.083511352539,0.071777343750,-0.022979736328
-0.178741455078,-0.293258666992,-0.181457519531,0.077117919922,0.057357788086,-0.008422851563
-0.188369750977,-0.321136474609,-0.160278320313,0.066009521484,0.015625000000,0.022537231445
-0.199478149414,-0.314788818359,-0.114349365234,0.057128906250,-0.006561279297,0.040542602539
-0.216964721680,-0.259902954102,-0.013534545898,0.048248291016,-0.035171508789,0.074661254883
-0.218627929688,-0.224517822266,0.017578125000,0.040985107422,-0.038208007813,0.088699340820
-0.223892211914,-0.194442749023,0.034545898438,0.030975341797,-0.027267456055,0.102523803711
-0.203002929688,-0.155380249023,0.029067993164,0.027633666992,-0.017776489258,0.106338500977
-0.192367553711,-0.134124755859,0.003768920898,0.024490356445,-0.007522583008,0.111465454102
-0.180618286133,-0.093109130859,-0.076187133789,0.021835327148,0.008392333984,0.118927001953
-0.169479370117,-0.064285278320,-0.102142333984,0.028045654297,0.006912231445,0.121902465820
-0.131195068359,-0.007736206055,-0.106826782227,0.041000366211,-0.012191772461,0.121353149414
-0.109603881836,0.013641357422,-0.092605590820,0.042892456055,-0.024139404297,0.115829467773
-0.053054809570,0.037109375000,-0.071914672852,0.037841796875,-0.039627075195,0.095657348633
-0.031829833984,0.043106079102,-0.064971923828,0.026687622070,-0.042114257813,0.084823608398
-0.006378173828,0.042144775391,-0.034133911133,0.000839233398,-0.046432495117,0.062881469727
0.017196655273,0.034729003906,-0.022796630859,-0.000976562500,-0.047576904297,0.051971435547
0.045532226563,0.009613037109,-0.007080078125,0.001327514648,-0.044677734375,0.030899047852
0.049453735352,-0.021835327148,-0.000930786133,0.009948730469,-0.043518066406,0.021102905273
0.044967651367,-0.069961547852,-0.008392333984,0.030044555664,-0.038879394531,0.013229370117
0.045989990234,-0.064941406250,-0.008758544922,0.026290893555,-0.037261962891,0.015747070313
0.048980712891,-0.054214477539,-0.031906127930,0.026794433594,-0.035659790039,0.015396118164
0.045898437500,-0.032989501953,-0.050857543945,0.021270751953,-0.038375854492,0.012695312500
0.039077758789,-0.026245117188,-0.041442871094,0.019241333008,-0.050415039063,0.002838134766
0.029067993164,-0.023361206055,-0.008819580078,0.018783569336,-0.050476074219,-0.002929687500
0.028060913086,-0.025207519531,0.003967285156,0.018585205078,-0.052093505859,-0.008712768555
0.029022216797,-0.043685913086,0.022628784180,0.016815185547,-0.050323486328,-0.021926879883
0.028060913086,-0.061798095703,0.030593872070,0.013366699219,-0.048461914063,-0.028717041016
0.021301269531,-0.104095458984,0.050476074219,0.008102416992,-0.046752929688,-0.040878295898
0.018615722656,-0.126510620117,0.062408447266,0.010498046875,-0.046646118164,-0.045349121094
0.018402099609,-0.171142578125,0.087005615234,0.012451171875,-0.043716430664,-0.048477172852
0.013580322266,-0.198043823242,0.100830078125,0.009307861328,-0.041061401367,-0.047760009766
0.013534545898,-0.245803833008,0.131988525391,0.005874633789,-0.034378051758,-0.040252685547
0.018844604492,-0.256912231445,0.133056640625,0.012283325195,-0.027023315430,-0.030029296875
0.026443481445,-0.225372314453,0.109436035156,0.012130737305,-0.007446289063,-0.000106811523
0.028991699219,-0.175170898438,0.085876464844,0.006958007813,0.002914428711,0.014358520508
0.030303955078,-0.126602172852,0.057388305664,0.001251220703,0.017532348633,0.026535034180
0.036636352539,-0.066116333008,0.015670776367,-0.000305175781,0.020996093750,0.024139404297
0.039916992188,-0.058578491211,0.001953125000,-0.002334594727,0.022674560547,0.017776489258
0.043411254883,-0.073379516602,-0.013946533203,-0.004196166992,0.021911621094,0.002258300781
0.043441772461,-0.089050292969,-0.021697998047,-0.003997802734,0.020645141602,-0.003479003906
0.041717529297,-0.124694824219,-0.030838012695,-0.003448486328,0.014678955078,-0.009796142578
0.041687011719,-0.138748168945,-0.029373168945,-0.003311157227,0.009994506836,-0.009841918945
0.044082641602,-0.149063110352,-0.012985229492,-0.002029418945,0.000732421875,-0.004196166992
0.044342041016,-0.144271850586,0.002410888672,-0.000656127930,-0.002319335938,-0.000534057617
0.047821044922,-0.122375488281,0.023376464844,0.001358032227,-0.002960205078,0.004470825195
0.048339843750,-0.111770629883,0.024551391602,-0.000198364258,-0.000732421875,0.005081176758
0.046951293945,-0.103317260742,0.012435913086,-0.003753662109,0.004943847656,0.002914428711
0.046554565430,-0.107498168945,0.002365112305,-0.005661010742,0.006927490234,0.001129150391
0.045608520508,-0.117889404297,-0.011459350586,-0.005249023438,0.007522583008,-0.000747680664
0.046264648438,-0.120697021484,-0.012298583984,-0.003356933594,0.006347656250,-0.000488281250
0.045883178711,-0.119140625000,-0.008972167969,-0.000061035156,0.003616333008,0.000915527344
0.047760009766,-0.112762451172,0.000335693359,0.000198364258,0.002975463867,0.001205444336
0.047851562500,-0.110168457031,0.003677368164,-0.000244140625,0.002807617188,0.001190185547
0.048965454102,-0.107391357422,0.008163452148,-0.000976562500,0.003158569336,0.000473022461
0.050323486328,-0.108856201172,0.010833740234,-0.001098632813,0.003463745117,-0.000305175781
0.048904418945,-0.114273071289,0.013793945313,-0.001983642578,0.004882812500,-0.001296997070
0.046432495117,-0.116363525391,0.009826660156,-0.002609252930,0.006057739258,-0.001602172852
0.046157836914,-0.121963500977,-0.002136230469,-0.003479003906,0.007141113281,-0.001937866211
0.046035766602,-0.124343872070,-0.007080078125,-0.003097534180,0.006683349609,-0.001907348633
0.045043945313,-0.125244140625,-0.012481689453,-0.001373291016,0.004562377930,-0.001174926758
0.045837402344,-0.123916625977,-0.011718750000,-0.000289916992,0.002853393555,-0.000839233398
0.046203613281,-0.117218017578,-0.005828857422,0.001739501953,0.000091552734,0.000091552734
0.046447753906,-0.115234375000,-0.001831054688,0.001785278320,-0.000473022461,0.000106811523
0.046798706055,-0.116119384766,0.005279541016,0.001190185547,-0.000839233398,-0.000823974609
0.046539306641,-0.118606567383,0.007965087891,0.001144409180,-0.000564575195,-0.000854492188
0.046829223633,-0.115539550781,0.009048461914,0.001602172852,0.000640869141,-0.000122070313
0.046234130859,-0.104141235352,0.006912231445,0.001312255859,0.001403808594,-0.000259399414
0.045837402344,-0.103347778320,0.005493164063,-0.000091552734,0.002090454102,-0.001159667969
0.044754028320,-0.114929199219,0.004638671875,-0.001693725586,0.002822875977,-0.003890991211
0.044174194336,-0.119338989258,0.002731323242,-0.001327514648,0.003097534180,-0.004287719727
0.041259765625,-0.125579833984,-0.002395629883,-0.002655029297,0.003585815430,-0.004241943359
0.040939331055,-0.131378173828,-0.004791259766,-0.002838134766,0.003646850586,-0.004608154297
0.040695190430,-0.137557983398,-0.005905151367,-0.000320434570,0.001953125000,-0.003387451172
0.040985107422,-0.134719848633,-0.005035400391,0.000640869141,0.001037597656,-0.001770019531
0.042800903320,-0.131164550781,0.002212524414,0.001953125000,-0.000747680664,0.000259399414
0.043441772461,-0.127532958984,0.007247924805,0.001724243164,-0.001113891602,0.001190185547
0.043701171875,-0.119628906250,0.006225585938,0.000671386719,0.000381469727,0.002182006836
0.042892456055,-0.112838745117,0.001907348633,0.000228881836,0.001419067383,0.001953125000
0.042404174805,-0.111068725586,-0.002929687500,0.000122070313,0.002029418945,0.001129150391
0.042114257813,-0.115264892578,-0.006347656250,-0.000564575195,0.001602172852,-0.000930786133
0.042297363281,-0.120285034180,-0.005508422852,-0.000534057617,0.000961303711,-0.001525878906
0.042602539063,-0.127487182617,-0.005264282227,-0.001312255859,0.000030517578,-0.001449584961
0.042846679688,-0.129882812500,-0.006576538086,-0.001724243164,-0.000396728516,-0.000885009766
0.041961669922,-0.125198364258,-0.003265380859,-0.001129150391,-0.002029418945,0.001342773438

-0.156311035156,-0.124313354492,-0.047073364258,-0.042800903320,-0.042648315430,-0.088363647461
-0.154220581055,-0.159912109375,-0.042541503906,-0.043563842773,-0.046981811523,-0.084197998047
-0.169357299805,-0.227386474609,-0.041992187500,-0.051300048828,-0.051666259766,-0.067550659180
-0.182205200195,-0.237380981445,-0.040130615234,-0.052398681641,-0.055404663086,-0.055648803711
-0.189636230469,-0.190811157227,0.001342773438,-0.078613281250,-0.064987182617,-0.028076171875
-0.192535400391,-0.184890747070,0.007507324219,-0.077682495117,-0.067825317383,-0.023590087891
-0.201873779297,-0.224472045898,0.062515258789,-0.065155029297,-0.079574584961,-0.023696899414
-0.200744628906,-0.242630004883,0.091461181641,-0.057418823242,-0.080718994141,-0.018951416016
-0.170715332031,-0.239639282227,0.118820190430,-0.040954589844,-0.065383911133,0.003585815430
-0.161666870117,-0.201126098633,0.095764160156,-0.036773681641,-0.050567626953,0.019424438477
-0.158935546875,-0.111755371094,0.018264770508,-0.038391113281,-0.028091430664,0.042419433594
-0.155288696289,-0.086059570313,-0.010269165039,-0.034896850586,-0.026123046875,0.045562744141
-0.154083251953,-0.079376220703,-0.009399414063,-0.026214599609,-0.036834716797,0.040954589844
-0.152679443359,-0.101867675781,0.016754150391,-0.018218994141,-0.045074462891,0.036590576172
-0.159240722656,-0.166763305664,0.089202880859,-0.011291503906,-0.055389404297,0.032028198242
-0.159301757813,-0.191528320313,0.112106323242,-0.007293701172,-0.053680419922,0.035125732422
-0.159774780273,-0.190505981445,0.131790161133,-0.010665893555,-0.038543701172,0.053558349609
-0.163406372070,-0.173400878906,0.135757446289,-0.013381958008,-0.029556274414,0.062515258789
-0.166351318359,-0.159454345703,0.131988525391,-0.005508422852,-0.011489868164,0.070297241211
-0.150131225586,-0.135589599609,0.103225708008,-0.000289916992,-0.004318237305,0.072113037109
-0.139785766602,-0.122467041016,0.085998535156,0.008438110352,0.005157470703,0.073913574219
-0.115264892578,-0.101669311523,0.066894531250,0.012344360352,0.007690429688,0.073684692383
-0.109741210938,-0.097885131836,0.044342041016,0.015243530273,0.010391235352,0.073120117188
-0.093429565430,-0.094543457031,0.036346435547,0.002471923828,0.014739990234,0.072982788086
-0.093872070313,-0.089767456055,0.028884887695,0.006561279297,0.017105102539,0.073135375977
-0.068893432617,-0.085662841797,0.022384643555,0.011505126953,0.016235351563,0.071594238281
-0.053970336914,-0.084838867188,0.028244018555,0.010772705078,0.014694213867,0.069808959961
-0.037567138672,-0.069854736328,0.038864135742,0.006851196289,0.015304565430,0.066482543945
-0.028213500977,-0.055801391602,0.040954589844,0.004837036133,0.016967773438,0.064605712891
-0.020248413086,-0.039840698242,0.045394897461,0.003875732422,0.019378662109,0.055908203125
-0.006790161133,-0.042343139648,0.056472778320,0.002807617188,0.019454956055,0.049011230469
0.000091552734,-0.045242309570,0.065032958984,0.005828857422,0.020050048828,0.040664672852
0.014221191406,-0.033538818359,0.073760986328,0.005905151367,0.027038574219,0.038162231445
0.018157958984,-0.035827636719,0.071456909180,0.000671386719,0.033691406250,0.032821655273
0.021621704102,-0.055999755859,0.027832031250,-0.011611938477,0.049926757813,0.021499633789
0.021224975586,-0.062179565430,0.003616333008,-0.012466430664,0.054718017578,0.018447875977
0.020843505859,-0.077697753906,-0.030685424805,-0.010055541992,0.055038452148,0.011886596680
0.025329589844,-0.084381103516,-0.039657592773,-0.009506225586,0.052108764648,0.009933471680
0.034271240234,-0.093170166016,-0.046722412109,-0.009765625000,0.044433593750,0.007507324219
0.038040161133,-0.093368530273,-0.045257568359,-0.011825561523,0.041061401367,0.007156372070
0.042861938477,-0.082443237305,-0.025497436523,-0.017272949219,0.035293579102,0.007308959961
0.038406372070,-0.076690673828,-0.014892578125,-0.019592285156,0.034439086914,0.005737304688
0.033554077148,-0.069396972656,-0.002822875977,-0.024612426758,0.036453247070,0.001190185547
0.041198730469,-0.049392700195,0.001144409180,-0.027481079102,0.039855957031,-0.001525878906
0.036788940430,-0.041687011719,-0.004821777344,-0.031143188477,0.043869018555,-0.010177612305
0.030456542969,-0.028747558594,-0.011367797852,-0.033554077148,0.047714233398,-0.014984130859
0.027008056641,-0.029220581055,-0.017578125000,-0.032409667969,0.048751831055,-0.020141601563
0.019439697266,-0.040542602539,-0.028717041016,-0.033340454102,0.050338745117,-0.030624389648
0.001266479492,-0.054672241211,-0.034317016602,-0.031524658203,0.050338745117,-0.036026000977
-0.008636474609,-0.087966918945,-0.051742553711,-0.027633666992,0.046310424805,-0.046005249023
-0.011795043945,-0.108963012695,-0.066162109375,-0.025588989258,0.043792724609,-0.050582885742
-0.020431518555,-0.144943237305,-0.092697143555,-0.023223876953,0.035736083984,-0.054290771484
-0.025192260742,-0.157745361328,-0.096435546875,-0.021438598633,0.028564453125,-0.053375244141
-0.029479980469,-0.163314819336,-0.068222045898,-0.013854980469,0.007705688477,-0.044967651367
-0.036682128906,-0.150894165039,-0.035827636719,-0.011520385742,-0.001220703125,-0.038818359375
-0.018417358398,-0.105484008789,0.010665893555,-0.007904052734,-0.007415771484,-0.025924682617
-0.013214111328,-0.086318969727,0.020080566406,-0.010070800781,-0.005096435547,-0.022094726563
-0.026824951172,-0.084228515625,0.006790161133,-0.012603759766,0.004302978516,-0.023681640625
-0.030807495117,-0.094909667969,-0.016250610352,-0.012466430664,0.007492065430,-0.025177001953
-0.041198730469,-0.083892822266,-0.075347900391,-0.033309936523,0.011535644531,-0.026168823242
-0.042327880859,-0.105636596680,-0.115737915039,-0.041610717773,0.007797241211,-0.031723022461
-0.077026367188,-0.158706665039,-0.125717163086,-0.051544189453,-0.018630981445,-0.040344238281
-0.077911376953,-0.181045532227,-0.108551025391,-0.052261352539,-0.035232543945,-0.040420532227
-0.092224121094,-0.188674926758,-0.043762207031,-0.044387817383,-0.064590454102,-0.032409667969
-0.088638305664,-0.187515258789,-0.007843017578,-0.038024902344,-0.074478149414,-0.028366088867
-0.101669311523,-0.194824218750,0.063629150391,-0.031204223633,-0.082382202148,-0.023742675781
-0.103317260742,-0.200012207031,0.090270996094,-0.027770996094,-0.079956054688,-0.020858764648
-0.099899291992,-0.202896118164,0.120590209961,-0.021987915039,-0.066131591797,-0.011947631836
-0.094955444336,-0.201980590820,0.124542236328,-0.020843505859,-0.057006835938,-0.006576538086
-0.092498779297,-0.179519653320,0.093032836914,-0.021316528320,-0.035751342773,0.006622314453
-0.090087890625,-0.164047241211,0.068099975586,-0.022613525391,-0.027587890625,0.013031005859
-0.092590332031,-0.148223876953,0.028823852539,-0.016464233398,-0.021987915039,0.021102905273
-0.094467163086,-0.144409179688,0.025817871094,-0.011062622070,-0.024490356445,0.023925781250
-0.090789794922,-0.132965087891,0.046691894531,-0.002960205078,-0.033096313477,0.028442382813
-0.089553833008,-0.129699707031,0.063827514648,-0.002990722656,-0.036376953125,0.029418945313
-0.080459594727,-0.137924194336,0.096328735352,-0.006057739258,-0.037322998047,0.028106689453
-0.078262329102,-0.157943725586,0.104248046875,-0.003555297852,-0.035324096680,0.025497436523
-0.096267700195,-0.218811035156,0.110534667969,0.005126953125,-0.030853271484,0.022994995117
-0.092056274414,-0.228668212891,0.108276367188,0.007431030273,-0.025878906250,0.029144287109
-0.093215942383,-0.187118530273,0.094512939453,0.015960693359,-0.016342163086,0.049133300781
-0.084579467773,-0.154678344727,0.091918945313,0.019531250000,-0.012786865234,0.057174682617
-0.081741333008,-0.127685546875,0.086334228516,0.022933959961,-0.007446289063,0.061630249023
-0.062438964844,-0.100372314453,0.085968017578,0.018600463867,-0.004013061523,0.059951782227
-0.054870605469,-0.102340698242,0.078430175781,0.012954711914,0.002349853516,0.051834106445
-0.048309326172,-0.114410400391,0.072875976563,0.009735107422,0.004592895508,0.049819946289
-0.042846679688,-0.112304687500,0.073455810547,0.008789062500,0.006393432617,0.049270629883
-0.034362792969,-0.107055664063,0.077499389648,0.006423950195,0.010437011719,0.047927856445
-0.031723022461,-0.105621337891,0.081832885742,0.002716064453,0.013259887695,0.046249389648
-0.027297973633,-0.106903076172,0.075180053711,0.000885009766,0.020050048828,0.042449951172
-0.025604248047,-0.098892211914,0.072113037109,-0.000839233398,0.023300170898,0.042984008789
-0.011657714844,-0.074935913086,0.060424804688,-0.002914428711,0.030166625977,0.044555664063
-0.005767822266,-0.066421508789,0.052993774414,-0.003433227539,0.033920288086,0.043060302734
0.003005981445,-0.059158325195,0.042648315430,-0.001953125000,0.039138793945,0.035461425781
0.010025024414,-0.057098388672,0.033279418945,-0.001129150391,0.041275024414,0.031829833984
0.016708374023,-0.060134887695,0.025756835938,-0.008880615234,0.043548583984,0.022552490234
0.016693115234,-0.083251953125,0.021850585938,-0.009094238281,0.043045043945,0.017410278320
0.016174316406,-0.089508056641,0.024078369141,-0.004364013672,0.041229248047,0.014862060547
0.029037475586,-0.077865600586,0.028045654297,0.002655029297,0.038223266602,0.015197753906
0.029800415039,-0.076461791992,0.030044555664,0.000091552734,0.038345336914,0.015441894531
0.036437988281,-0.077438354492,0.026702880859,-0.016067504883,0.041656494141,0.016998291016
0.037429809570,-0.067382812500,0.011672973633,-0.019882202148,0.045135498047,0.017898559570
0.035812377930,-0.053558349609,-0.025833129883,-0.021759033203,0.049667358398,0.014205932617
0.035430908203,-0.048233032227,-0.037902832031,-0.020843505859,0.047897338867,0.010665893555
0.040542602539,-0.029098510742,-0.047546386719,-0.016738891602,0.040237426758,0.004089355469

-0.022277832031,-0.226852416992,-0.067642211914,-0.016555786133,0.016067504883,-0.066375732422
-0.017776489258,-0.242843627930,-0.066223144531,-0.013656616211,0.010437011719,-0.056335449219
-0.006790161133,-0.167221069336,-0.037704467773,-0.008087158203,-0.002380371094,-0.026031494141
-0.012100219727,-0.101104736328,-0.017562866211,-0.007125854492,-0.006637573242,-0.015319824219
-0.014053344727,-0.001815795898,0.016403198242,-0.003784179688,-0.009826660156,-0.015884399414
-0.019866943359,0.019866943359,0.024520874023,-0.003417968750,-0.008407592773,-0.025192260742
-0.036376953125,-0.006149291992,0.007217407227,-0.004974365234,-0.002136230469,-0.051803588867
-0.049194335938,-0.048355102539,-0.010574340820,-0.008712768555,-0.000808715820,-0.063034057617
-0.067687988281,-0.128036499023,-0.029067993164,-0.022369384766,-0.003890991211,-0.073211669922
-0.080322265625,-0.167480468750,-0.032608032227,-0.022583007813,-0.007629394531,-0.074783325195
-0.090942382813,-0.236465454102,-0.023468017578,-0.023956298828,-0.015335083008,-0.070327758789
-0.095169067383,-0.261734008789,-0.014694213867,-0.022674560547,-0.018142700195,-0.063537597656
-0.086563110352,-0.260696411133,0.000534057617,-0.013305664063,-0.022659301758,-0.038406372070
-0.084716796875,-0.217422485352,0.008575439453,-0.010314941406,-0.023666381836,-0.022872924805
-0.083343505859,-0.124160766602,0.013397216797,-0.008728027344,-0.023849487305,-0.005523681641
-0.080276489258,-0.089294433594,0.018356323242,-0.012451171875,-0.022994995117,-0.004455566406
-0.085403442383,-0.076583862305,-0.005203247070,-0.014999389648,-0.019729614258,-0.014099121094
-0.092117309570,-0.093978881836,-0.023788452148,-0.018203735352,-0.019088745117,-0.019729614258
-0.097442626953,-0.136825561523,-0.056915283203,-0.024459838867,-0.022094726563,-0.022903442383
-0.108139038086,-0.153259277344,-0.064361572266,-0.025054931641,-0.027053833008,-0.020324707031
-0.114334106445,-0.161148071289,-0.042999267578,-0.021820068359,-0.041580200195,-0.010711669922
-0.124359130859,-0.154144287109,-0.021911621094,-0.018966674805,-0.048889160156,-0.005905151367
-0.125717163086,-0.138595581055,0.032501220703,-0.015869140625,-0.056823730469,0.000854492188
-0.122772216797,-0.135192871094,0.055801391602,-0.015258789063,-0.056915283203,0.003311157227
-0.119659423828,-0.132003784180,0.072921752930,-0.015945434570,-0.049255371094,0.006958007813
-0.111053466797,-0.129852294922,0.085037231445,-0.015487670898,-0.043273925781,0.008285522461
-0.108200073242,-0.131515502930,0.080718994141,-0.016357421875,-0.031402587891,0.010986328125
-0.106170654297,-0.141036987305,0.061935424805,-0.017211914063,-0.027496337891,0.012680053711
-0.105422973633,-0.148895263672,0.055786132813,-0.015716552734,-0.025100708008,0.018402099609
-0.102020263672,-0.163696289063,0.043792724609,-0.010131835938,-0.021392822266,0.019317626953
-0.101272583008,-0.163696289063,0.034271240234,-0.006713867188,-0.019958496094,0.023376464844
-0.097717285156,-0.150985717773,0.024566650391,-0.003723144531,-0.019058227539,0.032135009766
-0.096221923828,-0.149444580078,0.024353027344,-0.001358032227,-0.019622802734,0.034591674805
-0.095001220703,-0.133697509766,0.032516479492,0.002792358398,-0.020828247070,0.040023803711
-0.088470458984,-0.117645263672,0.038269042969,0.004684448242,-0.020782470703,0.042678833008
-0.076370239258,-0.092544555664,0.051010131836,0.002334594727,-0.018585205078,0.043426513672
-0.068283081055,-0.088424682617,0.053802490234,0.001220703125,-0.016159057617,0.041351318359
-0.059204101563,-0.111160278320,0.052841186523,-0.004974365234,-0.009384155273,0.033767700195
-0.057235717773,-0.130020141602,0.048309326172,-0.008590698242,-0.005508422852,0.031143188477
-0.054336547852,-0.155792236328,0.035293579102,-0.008300781250,-0.000366210937,0.031677246094
-0.053070068359,-0.160125732422,0.031600952148,-0.007415771484,0.000640869141,0.034179687500
-0.052490234375,-0.145294189453,0.022033691406,-0.002929687500,0.001342773438,0.041061401367
-0.047637939453,-0.129821777344,0.023605346680,0.001312255859,0.000137329102,0.044357299805
-0.038955688477,-0.094894409180,0.032272338867,0.010513305664,-0.002090454102,0.047485351563
-0.034851074219,-0.081893920898,0.036926269531,0.011123657227,-0.002090454102,0.046386718750
-0.025390625000,-0.069412231445,0.047744750977,0.011001586914,-0.001174926758,0.040695190430
-0.013031005859,-0.064361572266,0.050888061523,0.010421752930,0.000534057617,0.036941528320
-0.005706787109,-0.064926147461,0.054824829102,0.007858276367,0.003005981445,0.028549194336
0.003219604492,-0.088653564453,0.053222656250,-0.001113891602,0.011138916016,0.023941040039
0.003234863281,-0.108947753906,0.044006347656,-0.005905151367,0.015808105469,0.020202636719
0.000946044922,-0.147766113281,0.027664184570,-0.011123657227,0.021148681641,0.017410278320
-0.000320434570,-0.156860351563,0.022842407227,-0.009201049805,0.021545410156,0.019638061523
0.000518798828,-0.145080566406,0.018814086914,-0.003570556641,0.020584106445,0.027618408203
0.003768920898,-0.127197265625,0.015686035156,-0.001968383789,0.020950317383,0.030761718750
0.009857177734,-0.096328735352,0.010681152344,0.001174926758,0.020629882813,0.032089233398
0.014404296875,-0.084274291992,0.012252807617,0.001586914063,0.019897460938,0.030792236328
0.018432617188,-0.074844360352,0.014907836914,0.002182006836,0.018295288086,0.026687622070
0.025161743164,-0.064559936523,0.039825439453,0.002059936523,0.017044067383,0.023757934570
0.029678344727,-0.067199707031,0.054992675781,0.001220703125,0.017120361328,0.020248413086
0.030792236328,-0.087081909180,0.054824829102,-0.008056640625,0.026550292969,0.012710571289
0.028945922852,-0.105285644531,0.034820556641,-0.014465332031,0.033432006836,0.008972167969
0.023941040039,-0.136276245117,-0.023406982422,-0.022552490234,0.044525146484,0.005340576172
0.022308349609,-0.145843505859,-0.049575805664,-0.020523071289,0.045547485352,0.005676269531
0.026611328125,-0.138519287109,-0.080688476563,-0.008239746094,0.035736083984,0.011749267578
0.030776977539,-0.119964599609,-0.080596923828,-0.002853393555,0.027740478516,0.015502929688
0.041168212891,-0.075469970703,-0.048110961914,0.005645751953,0.011871337891,0.017669677734
0.045623779297,-0.059890747070,-0.024826049805,0.006622314453,0.006500244141,0.015655517578
0.049713134766,-0.049896240234,0.012680053711,0.004547119141,0.003631591797,0.007293701172
0.051681518555,-0.060729980469,0.024627685547,0.002731323242,0.005920410156,0.000732421875
0.049255371094,-0.088073730469,0.027862548828,-0.000793457031,0.013442993164,-0.010131835938
0.044937133789,-0.144744873047,0.015060424805,-0.005599975586,0.017623901367,-0.011276245117
0.043624877930,-0.160934448242,0.004837036133,-0.004653930664,0.020309448242,-0.009155273438
0.042800903320,-0.153045654297,-0.013305664063,-0.002517700195,0.021194458008,0.001083374023
0.043151855469,-0.130554199219,-0.021728515625,-0.002044677734,0.021087646484,0.006149291992
0.043136596680,-0.099090576172,-0.041442871094,-0.002029418945,0.020889282227,0.007598876953
0.043380737305,-0.095840454102,-0.045715332031,-0.001770019531,0.018692016602,0.005081176758
0.044830322266,-0.107452392578,-0.029373168945,0.000244140625,0.010955810547,-0.000305175781
0.046813964844,-0.114425659180,-0.012451171875,0.000625610352,0.008270263672,-0.001174926758
0.049987792969,-0.117660522461,0.007827758789,-0.001068115234,0.009063720703,-0.000671386719
0.049194335938,-0.116989135742,0.002212524414,-0.003555297852,0.012390136719,-0.000137329102
0.045425415039,-0.120071411133,-0.011093139648,-0.006378173828,0.015701293945,-0.000610351563
0.046615600586,-0.124420166016,-0.011520385742,-0.004592895508,0.014923095703,-0.000991821289
0.048477172852,-0.121078491211,-0.014984130859,-0.004898071289,0.014587402344,0.000518798828
0.048324584961,-0.114685058594,-0.022064208984,-0.005767822266,0.015380859375,0.001358032227
0.048019409180,-0.104583740234,-0.035171508789,-0.006683349609,0.014907836914,0.001113891602
0.045608520508,-0.103897094727,-0.035903930664,-0.005981445313,0.013061523438,0.000061035156
0.047088623047,-0.105880737305,-0.024154663086,-0.000091552734,0.005752563477,-0.002059936523
0.051605224609,-0.106246948242,0.011932373047,0.000595092773,0.004013061523,-0.002059936523
0.052490234375,-0.100891113281,0.023284912109,-0.001022338867,0.005050659180,-0.001632690430
0.049972534180,-0.089752197266,0.013870239258,-0.004898071289,0.012588500977,-0.002624511719
0.047058105469,-0.089797973633,-0.002700805664,-0.007904052734,0.016418457031,-0.004455566406
0.043838500977,-0.096710205078,-0.030807495117,-0.007614135742,0.017791748047,-0.008361816406
0.042556762695,-0.094970703125,-0.032302856445,-0.006057739258,0.014892578125,-0.009216308594
0.040191650391,-0.077804565430,-0.006958007813,-0.001159667969,0.007690429688,-0.010452270508
0.040878295898,-0.069625854492,0.005569458008,0.000656127930,0.006576538086,-0.011978149414
0.035171508789,-0.067672729492,0.015441894531,-0.002136230469,0.010192871094,-0.018539428711
0.031127929688,-0.076583862305,0.012054443359,-0.002822875977,0.012496948242,-0.022399902344
0.022872924805,-0.106124877930,-0.007202148438,-0.007812500000,0.017028808594,-0.028213500977
0.018142700195,-0.128067016602,-0.018310546875,-0.010070800781,0.018798828125,-0.030838012695
0.016326904297,-0.173034667969,-0.038528442383,-0.008300781250,0.018966674805,-0.032272338867
0.011566162109,-0.183227539063,-0.043869018555,-0.005111694336,0.016250610352,-0.028976440430
0.010162353516,-0.173751831055,-0.038574218750,-0.003829956055,0.008316040039,-0.015182495117
0.012603759766,-0.109359741211,-0.016799926758,-0.003036499023,0.005767822266,-0.010284423828
0.009048461914,-0.080276489258,-0.007141113281,-0.003952026367,0.004867553711,-0.012237548828

-0.102828979492,-0.141921997070,-0.068389892578,-0.034637451172,-0.011184692383,-0.084243774414
-0.113143920898,-0.163696289063,-0.069213867188,-0.032882690430,-0.017471313477,-0.082931518555
-0.126296997070,-0.185012817383,-0.050628662109,-0.037155151367,-0.031188964844,-0.071762084961
-0.125106811523,-0.185791015625,-0.035217285156,-0.037048339844,-0.037399291992,-0.065155029297
-0.126403808594,-0.183868408203,-0.008163452148,-0.039535522461,-0.042892456055,-0.053451538086
-0.136215209961,-0.186416625977,-0.002365112305,-0.038482666016,-0.042602539063,-0.048614501953
-0.142974853516,-0.187500000000,0.005905151367,-0.040130615234,-0.042556762695,-0.037567138672
-0.147613525391,-0.185470581055,0.006042480469,-0.041946411133,-0.041824340820,-0.031463623047
-0.153533935547,-0.184494018555,0.005981445313,-0.044738769531,-0.042312622070,-0.020431518555
-0.153793334961,-0.180541992188,0.010604858398,-0.043838500977,-0.043533325195,-0.014755249023
-0.145080566406,-0.158081054688,0.005950927734,-0.040679931641,-0.044509887695,-0.001617431641
-0.144653320313,-0.137451171875,0.002685546875,-0.039993286133,-0.044723510742,0.004943847656
-0.150695800781,-0.097839355469,0.000854492188,-0.041290283203,-0.046264648438,0.014617919922
-0.154144287109,-0.083129882813,0.003952026367,-0.039733886719,-0.047637939453,0.016921997070
-0.153610229492,-0.066619873047,0.021408081055,-0.034103393555,-0.051513671875,0.018173217773
-0.154861450195,-0.064880371094,0.035186767578,-0.030349731445,-0.053298950195,0.017517089844
-0.152069091797,-0.064346313477,0.047866821289,-0.027114868164,-0.051986694336,0.017181396484
-0.153991699219,-0.070083618164,0.062789916992,-0.026626586914,-0.049331665039,0.016906738281
-0.152450561523,-0.075454711914,0.067810058594,-0.022048950195,-0.044952392578,0.017669677734
-0.148559570313,-0.081375122070,0.082336425781,-0.019592285156,-0.043472290039,0.019180297852
-0.144470214844,-0.082656860352,0.087966918945,-0.018096923828,-0.041030883789,0.021881103516
-0.137756347656,-0.092239379883,0.099884033203,-0.017913818359,-0.034286499023,0.022293090820
-0.134887695313,-0.105895996094,0.101455688477,-0.016815185547,-0.029937744141,0.021957397461
-0.136199951172,-0.137664794922,0.093368530273,-0.012420654297,-0.021621704102,0.023666381836
-0.137023925781,-0.145690917969,0.085678100586,-0.010253906250,-0.017883300781,0.027069091797
-0.130661010742,-0.147644042969,0.062149047852,-0.007476806641,-0.011093139648,0.035812377930
-0.128417968750,-0.140747070313,0.053558349609,-0.008300781250,-0.008880615234,0.040344238281
-0.119918823242,-0.116394042969,0.054351806641,-0.012374877930,-0.005996704102,0.048431396484
-0.117691040039,-0.115295410156,0.058547973633,-0.012817382813,-0.004699707031,0.049377441406
-0.105560302734,-0.125411987305,0.069869995117,-0.010055541992,-0.001342773438,0.048553466797
-0.101974487305,-0.127670288086,0.061889648438,-0.008575439453,0.002075195313,0.048843383789
-0.099716186523,-0.109268188477,0.032760620117,-0.006072998047,0.010147094727,0.052215576172
-0.094833374023,-0.098937988281,0.014984130859,-0.001663208008,0.011642456055,0.053253173828
-0.077407836914,-0.095718383789,0.000137329102,0.011611938477,0.007049560547,0.050399780273
-0.068725585938,-0.096221923828,0.021392822266,0.005554199219,0.002578735352,0.049285888672
-0.057647705078,-0.096267700195,0.033706665039,0.008422851563,-0.001068115234,0.047332763672
-0.051071166992,-0.095718383789,0.046020507813,0.006393432617,-0.001937866211,0.046707153320
-0.045623779297,-0.099487304688,0.069580078125,0.006393432617,-0.000442504883,0.043334960938
-0.044891357422,-0.100845336914,0.077239990234,0.007888793945,0.002258300781,0.041351318359
-0.047760009766,-0.099060058594,0.087402343750,0.014663696289,0.008605957031,0.039321899414
-0.041381835938,-0.079574584961,0.099411010742,0.015579223633,0.010986328125,0.039993286133
-0.032516479492,-0.066635131836,0.108032226563,0.012268066406,0.021881103516,0.037307739258
-0.019149780273,-0.052810668945,0.111724853516,0.005676269531,0.031127929688,0.033325195313
-0.021286010742,-0.055068969727,0.102691650391,0.001220703125,0.041854858398,0.028305053711
-0.022537231445,-0.077758789063,0.057647705078,0.000946044922,0.059875488281,0.018157958984
-0.023147583008,-0.091171264648,0.030120849609,0.002227783203,0.065475463867,0.014022827148
-0.026855468750,-0.110610961914,-0.032135009766,0.006286621094,0.068618774414,0.010162353516
-0.019378662109,-0.119384765625,-0.055267333984,0.004287719727,0.065353393555,0.010040283203
-0.007217407227,-0.142822265625,-0.086105346680,-0.001190185547,0.051925659180,0.011642456055
-0.000488281250,-0.146469116211,-0.090637207031,-0.002960205078,0.043273925781,0.015090942383
0.011230468750,-0.122665405273,-0.057342529297,0.003280639648,0.023498535156,0.023559570313
0.016220092773,-0.103530883789,-0.035354614258,0.007888793945,0.016967773438,0.026031494141
0.020843505859,-0.085617065430,0.005203247070,0.009628295898,0.012466430664,0.023086547852
0.024993896484,-0.085510253906,0.018371582031,0.008346557617,0.013412475586,0.019927978516
0.027969360352,-0.090515136719,0.020233154297,0.001235961914,0.021453857422,0.013748168945
0.027145385742,-0.115768432617,-0.006011962891,-0.000854492188,0.024627685547,0.011444091797
0.028030395508,-0.124435424805,-0.020782470703,-0.001647949219,0.025634765625,0.010894775391
0.029525756836,-0.119140625000,-0.031463623047,-0.003143310547,0.021667480469,0.014328002930
0.032150268555,-0.108154296875,-0.027130126953,-0.003128051758,0.018798828125,0.015762329102
0.036361694336,-0.100738525391,-0.022949218750,0.001251220703,0.016052246094,0.013305664063
0.037948608398,-0.101043701172,-0.025390625000,0.001754760742,0.015563964844,0.011810302734
0.040344238281,-0.101226806641,-0.021575927734,0.000030517578,0.013198852539,0.009506225586
0.041076660156,-0.105621337891,-0.014221191406,0.002548217773,0.011535644531,0.008102416992
0.041625976563,-0.105163574219,0.010421752930,0.004501342773,0.009582519531,0.007293701172
0.044601440430,-0.100357055664,0.017822265625,0.003479003906,0.011108398438,0.007308959961
0.044723510742,-0.097122192383,0.013732910156,-0.002517700195,0.019073486328,0.005813598633
0.044021606445,-0.096343994141,-0.023849487305,-0.007125854492,0.023025512695,0.004089355469
0.042846679688,-0.105575561523,-0.046463012695,-0.008132934570,0.025131225586,0.001373291016
0.040313720703,-0.129791259766,-0.074584960938,-0.004425048828,0.021041870117,-0.001876831055
0.040084838867,-0.136291503906,-0.074737548828,-0.001754760742,0.015457153320,-0.001022338867
0.042709350586,-0.138854980469,-0.042724609375,0.001831054688,0.003997802734,0.002243041992
0.044570922852,-0.135421752930,-0.023834228516,0.003479003906,0.001495361328,0.003707885742
0.046310424805,-0.124710083008,-0.001815795898,0.003524780273,0.002731323242,0.006179809570
0.045486450195,-0.119354248047,0.000762939453,0.003631591797,0.005035400391,0.006790161133
0.047866821289,-0.104156494141,-0.002746582031,0.002624511719,0.009399414063,0.007385253906
0.048507690430,-0.097183227539,-0.012969970703,0.000732421875,0.012023925781,0.006942749023
0.049789428711,-0.094116210938,-0.042022705078,-0.002563476563,0.015502929688,0.003982543945
0.048553466797,-0.097274780273,-0.052520751953,-0.003311157227,0.014907836914,0.002120971680
0.047164916992,-0.108932495117,-0.042373657227,-0.002059936523,0.008422851563,-0.000549316406
0.049652099609,-0.114013671875,-0.028686523438,-0.000427246094,0.005783081055,-0.000991821289
0.051071166992,-0.115798950195,-0.018692016602,-0.001846313477,0.006546020508,-0.000335693359
0.050827026367,-0.109283447266,-0.021545410156,-0.003250122070,0.008407592773,0.000152587891
0.050491333008,-0.106903076172,-0.031707763672,-0.004959106445,0.009887695313,-0.001129150391
0.048461914063,-0.121994018555,-0.043655395508,-0.005966186523,0.009109497070,-0.002319335938
0.048568725586,-0.130050659180,-0.041427612305,-0.005416870117,0.007278442383,-0.002502441406
0.049926757813,-0.130325317383,-0.031311035156,-0.002685546875,0.004013061523,0.000335693359
0.049850463867,-0.124221801758,-0.028076171875,-0.001739501953,0.003433227539,0.001998901367
0.050857543945,-0.109924316406,-0.029769897461,-0.000839233398,0.003494262695,0.003204345703
0.051498413086,-0.104858398438,-0.031265258789,-0.000610351563,0.003341674805,0.002899169922
0.051559448242,-0.104339599609,-0.034011840820,-0.000488281250,0.002273559570,0.001007080078
0.050842285156,-0.111648559570,-0.034851074219,-0.000503540039,0.001449584961,-0.000198364258
0.050888061523,-0.127105712891,-0.029815673828,-0.000167846680,-0.000534057617,-0.000717163086
0.051071166992,-0.126296997070,-0.026748657227,0.000015258789,-0.001083374023,0.000671386719
0.050765991211,-0.108093261719,-0.019821166992,0.001068115234,-0.001876831055,0.003204345703
0.051513671875,-0.108352661133,-0.016113281250,0.001281738281,-0.002075195313,0.002365112305
0.051208496094,-0.129364013672,-0.014221191406,0.000381469727,-0.001174926758,-0.000015258789
0.051605224609,-0.133193969727,-0.016143798828,0.000320434570,-0.000762939453,0.001205444336
0.050933837891,-0.109512329102,-0.019668579102,-0.000640869141,-0.000244140625,0.005523681641
0.050964355469,-0.100280761719,-0.017959594727,-0.000015258789,-0.000732421875,0.005416870117
0.052780151367,-0.104553222656,-0.011306762695,0.000793457031,-0.001373291016,0.001876831055
0.053253173828,-0.107818603516,-0.011840820313,0.000473022461,-0.000762939453,0.000991821289
0.052825927734,-0.105209350586,-0.016235351563,-0.000259399414,0.000106811523,0.001098632813
0.052978515625,-0.099777221680,-0.019042968750,0.000259399414,-0.000411987305,0.000152587891
0.052276611328,-0.106597900391,-0.016677856445,-0.003509521484,-0.001022338867,-0.002380371094

-0.096618652344,-0.175781250000,0.060409545898,-0.005371093750,-0.041732788086,-0.058624267578
-0.101593017578,-0.204269409180,0.057189941406,-0.008148193359,-0.034133911133,-0.056152343750
-0.096038818359,-0.229690551758,0.015136718750,-0.010177612305,-0.021514892578,-0.038391113281
-0.094909667969,-0.202423095703,-0.005386352539,-0.008972167969,-0.020736694336,-0.025299072266
-0.093765258789,-0.114227294922,-0.014938354492,-0.004043579102,-0.026504516602,-0.007781982422
-0.092132568359,-0.088333129883,-0.016113281250,-0.003143310547,-0.029220581055,-0.007019042969
-0.098953247070,-0.091140747070,-0.024963378906,-0.005493164063,-0.032897949219,-0.013916015625
-0.102767944336,-0.097427368164,-0.025711059570,-0.007492065430,-0.035293579102,-0.014984130859
-0.108703613281,-0.096954345703,-0.022659301758,-0.012664794922,-0.040847778320,-0.012100219727
-0.111785888672,-0.101791381836,-0.015945434570,-0.014465332031,-0.043823242188,-0.011474609375
-0.119613647461,-0.125915527344,-0.001419067383,-0.019775390625,-0.047195434570,-0.010635375977
-0.127899169922,-0.136550903320,0.010620117188,-0.020874023438,-0.048355102539,-0.009017944336
-0.123123168945,-0.127868652344,0.043548583984,-0.020660400391,-0.048507690430,-0.001693725586
-0.122955322266,-0.122680664063,0.054412841797,-0.020217895508,-0.045639038086,0.000640869141
-0.114105224609,-0.118011474609,0.054901123047,-0.016235351563,-0.036392211914,0.002502441406
-0.110321044922,-0.114761352539,0.046432495117,-0.014236450195,-0.031753540039,0.003540039063
-0.105087280273,-0.100723266602,0.023834228516,-0.009384155273,-0.025711059570,0.005798339844
-0.101058959961,-0.092559814453,0.011398315430,-0.008148193359,-0.024093627930,0.006515502930
-0.096801757813,-0.101577758789,-0.013748168945,-0.005554199219,-0.023452758789,0.005203247070
-0.097732543945,-0.111755371094,-0.020050048828,-0.005050659180,-0.025329589844,0.004928588867
-0.097259521484,-0.115417480469,-0.019287109375,-0.006423950195,-0.029891967773,0.008239746094
-0.099624633789,-0.119171142578,-0.018707275391,-0.006500244141,-0.032104492188,0.009643554688
-0.100128173828,-0.123519897461,-0.002319335938,-0.008850097656,-0.036712646484,0.013183593750
-0.100143432617,-0.122360229492,0.005645751953,-0.011047363281,-0.037170410156,0.015426635742
-0.101013183594,-0.122421264648,0.011260986328,-0.015579223633,-0.035049438477,0.017929077148
-0.094467163086,-0.115493774414,0.015090942383,-0.015625000000,-0.032577514648,0.019729614258
-0.090728759766,-0.105377197266,0.004867553711,-0.014572143555,-0.029113769531,0.022064208984
-0.085601806641,-0.099807739258,-0.023986816406,-0.011489868164,-0.024719238281,0.021347045898
-0.082427978516,-0.105072021484,-0.029159545898,-0.010635375977,-0.025558471680,0.020309448242
-0.078582763672,-0.117538452148,-0.017990112305,-0.009460449219,-0.028778076172,0.019836425781
-0.078674316406,-0.123748779297,-0.006256103516,-0.009017944336,-0.029907226563,0.021133422852
-0.080398559570,-0.130889892578,0.016540527344,-0.011230468750,-0.027694702148,0.021987915039
-0.073089599609,-0.135574340820,0.027969360352,-0.012130737305,-0.025314331055,0.022888183594
-0.068954467773,-0.143524169922,0.032196044922,-0.011871337891,-0.016250610352,0.025451660156
-0.068588256836,-0.147094726563,0.027420043945,-0.011932373047,-0.011032104492,0.027221679688
-0.063095092773,-0.143508911133,0.003768920898,-0.011138916016,-0.002883911133,0.032531738281
-0.061553955078,-0.137298583984,-0.006896972656,-0.009201049805,-0.001358032227,0.035079956055
-0.058242797852,-0.119750976563,-0.004699707031,-0.008071899414,-0.001403808594,0.039031982422
-0.055587768555,-0.112762451172,0.002243041992,-0.009475708008,-0.001281738281,0.040069580078
-0.045898437500,-0.109619140625,0.011917114258,-0.012481689453,0.000762939453,0.040023803711
-0.038833618164,-0.109359741211,0.015029907227,-0.015594482422,0.002975463867,0.039840698242
-0.029953002930,-0.119384765625,0.014312744141,-0.018051147461,0.008041381836,0.037338256836
-0.026519775391,-0.129211425781,0.010726928711,-0.016784667969,0.009628295898,0.035415649414
-0.021820068359,-0.144927978516,0.002532958984,-0.010818481445,0.010559082031,0.033676147461
-0.023498535156,-0.142562866211,-0.004440307617,-0.007629394531,0.010696411133,0.033966064453
-0.023727416992,-0.135971069336,-0.017242431641,0.002105712891,0.008132934570,0.035385131836
-0.015991210938,-0.108261108398,-0.023361206055,0.005035400391,0.005157470703,0.035537719727
-0.009262084961,-0.099578857422,-0.015197753906,0.006332397461,0.002258300781,0.034179687500
0.000061035156,-0.106628417969,0.010269165039,0.004241943359,0.000930786133,0.028350830078
0.003662109375,-0.115676879883,0.017578125000,0.003967285156,0.002624511719,0.025924682617
0.008377075195,-0.125717163086,0.019775390625,0.003890991211,0.006835937500,0.024414062500
0.007095336914,-0.129989624023,0.024902343750,0.003219604492,0.008193969727,0.023956298828
0.009963989258,-0.138763427734,0.034851074219,0.003601074219,0.010238647461,0.024276733398
0.009933471680,-0.137924194336,0.036285400391,0.000656127930,0.012084960938,0.025588989258
0.011016845703,-0.126602172852,0.022888183594,0.002502441406,0.018142700195,0.026412963867
0.007293701172,-0.118576049805,0.007278442383,0.007110595703,0.019851684570,0.026535034180
0.013473510742,-0.111846923828,0.007308959961,0.003524780273,0.019515991211,0.024871826172
0.018920898438,-0.116271972656,-0.001007080078,-0.000839233398,0.020187377930,0.024658203125
0.024246215820,-0.118103027344,-0.003173828125,-0.003143310547,0.020584106445,0.024353027344
0.027465820313,-0.128936767578,-0.021926879883,-0.002532958984,0.021850585938,0.023071289063
0.030548095703,-0.136123657227,-0.024414062500,-0.004974365234,0.021118164063,0.023086547852
0.031204223633,-0.139572143555,-0.037704467773,0.002227783203,0.018600463867,0.025772094727
0.034286499023,-0.129516601563,-0.037857055664,0.004318237305,0.015960693359,0.027999877930
0.038848876953,-0.105346679688,-0.020202636719,0.005218505859,0.011001586914,0.029800415039
0.041839599609,-0.095657348633,-0.009506225586,0.003585815430,0.010070800781,0.029159545898
0.045501708984,-0.100509643555,-0.005294799805,-0.000839233398,0.012573242188,0.024993896484
0.044174194336,-0.104171752930,-0.013442993164,-0.002304077148,0.014251708984,0.023529052734
0.047912597656,-0.097000122070,-0.026260375977,-0.001358032227,0.015945434570,0.024063110352
0.055358886719,-0.089233398438,-0.043106079102,-0.001174926758,0.015045166016,0.022903442383
0.049636840820,-0.097976684570,-0.044189453125,-0.002151489258,0.013137817383,0.020858764648
0.062561035156,-0.107055664063,-0.024978637695,-0.007568359375,0.010879516602,0.019531250000
0.064422607422,-0.114593505859,-0.021392822266,-0.005874633789,0.011062622070,0.020187377930
0.064834594727,-0.122131347656,-0.003295898438,-0.012512207031,0.010238647461,0.020935058594
0.061294555664,-0.110000610352,-0.011947631836,-0.007080078125,0.011810302734,0.023208618164
0.062469482422,-0.067886352539,-0.013229370117,-0.000793457031,0.012115478516,0.026779174805
0.062667846680,-0.054428100586,-0.003646850586,-0.002014160156,0.011779785156,0.025268554688
0.062347412109,-0.044830322266,0.024291992188,-0.005187988281,0.012786865234,0.018188476563
0.063140869141,-0.045181274414,0.038467407227,-0.008010864258,0.014831542969,0.014236450195
0.069107055664,-0.056900024414,0.028442382813,-0.015640258789,0.025680541992,0.006256103516
0.070190429688,-0.073150634766,-0.001419067383,-0.020904541016,0.032608032227,0.002151489258
0.072006225586,-0.094573974609,-0.033096313477,-0.027267456055,0.036727905273,-0.002593994141
0.076828002930,-0.137817382813,-0.067825317383,-0.029617309570,0.034652709961,-0.002517700195
0.074920654297,-0.153518676758,-0.074798583984,-0.021636962891,0.025253295898,0.004577636719
0.077362060547,-0.133773803711,-0.055130004883,-0.016906738281,0.020858764648,0.010147094727
0.073394775391,-0.102584838867,-0.039001464844,-0.014770507813,0.018539428711,0.014511108398
0.077621459961,-0.053604125977,-0.038818359375,-0.007980346680,0.017166137695,0.015655517578
0.077575683594,-0.041976928711,-0.040466308594,-0.006866455078,0.016784667969,0.012145996094
0.078369140625,-0.056747436523,-0.042022705078,-0.005508422852,0.014572143555,0.001998901367
0.078796386719,-0.075347900391,-0.035720825195,-0.005981445313,0.012863159180,-0.001602172852
0.077270507813,-0.096725463867,-0.022903442383,-0.006820678711,0.011474609375,-0.003219604492
0.078887939453,-0.095855712891,-0.016052246094,-0.007446289063,0.011672973633,-0.001892089844
0.080047607422,-0.110137939453,-0.013397216797,-0.011077880859,0.014389038086,-0.001770019531
0.080169677734,-0.113922119141,-0.025588989258,-0.012268066406,0.016754150391,-0.000946044922
0.075637817383,-0.101211547852,-0.047851562500,-0.010284423828,0.017410278320,0.002914428711
0.075958251953,-0.090103149414,-0.037155151367,-0.008285522461,0.014175415039,0.003997802734
0.078491210938,-0.063766479492,-0.018539428711,-0.007278442383,0.012023925781,0.003997802734
0.077331542969,-0.055999755859,-0.020889282227,-0.009323120117,0.013595581055,0.001937866211
0.075592041016,-0.052383422852,-0.036361694336,-0.013275146484,0.015548706055,-0.003936767578
0.075256347656,-0.057601928711,-0.041564941406,-0.015151977539,0.015060424805,-0.007583618164
0.074707031250,-0.063827514648,-0.043289184570,-0.019821166992,0.013427734375,-0.013824462891
0.074996948242,-0.085327148438,-0.037918090820,-0.021881103516,0.012878417969,-0.016448974609
0.073928833008,-0.100128173828,-0.035491943359,-0.021194458008,0.013046264648,-0.019149780273
0.065017700195,-0.123931884766,-0.040802001953,-0.019561767578,0.013320922852,-0.018478393555
0.069381713867,-0.125015258789,-0.042083740234,-0.016128540039,0.008682250977,-0.013259887695

-0.104064941406,-0.212692260742,-0.012741088867,-0.021606445313,-0.020019531250,-0.071960449219
-0.103576660156,-0.234466552734,-0.021896362305,-0.018157958984,-0.020355224609,-0.064941406250
-0.103988647461,-0.228378295898,-0.025146484375,-0.013534545898,-0.024749755859,-0.041320800781
-0.102233886719,-0.185989379883,-0.018203735352,-0.009628295898,-0.027526855469,-0.028106689453
-0.100357055664,-0.102188110352,-0.013595581055,-0.006820678711,-0.029800415039,-0.015121459961
-0.100845336914,-0.083267211914,-0.022750854492,-0.007125854492,-0.029144287109,-0.016235351563
-0.101181030273,-0.083038330078,-0.054306030273,-0.012649536133,-0.029922485352,-0.023544311523
-0.116439819336,-0.108657836914,-0.053970336914,-0.015472412109,-0.033752441406,-0.024551391602
-0.116867065430,-0.109756469727,-0.045410156250,-0.018814086914,-0.042297363281,-0.020156860352
-0.127792358398,-0.119125366211,-0.027069091797,-0.022674560547,-0.045104980469,-0.018890380859
-0.128967285156,-0.127502441406,-0.014968872070,-0.023712158203,-0.047271728516,-0.017517089844
-0.129638671875,-0.138244628906,0.010284423828,-0.024322509766,-0.048767089844,-0.012207031250
-0.132354736328,-0.140594482422,0.025054931641,-0.023620605469,-0.048171997070,-0.009414672852
-0.123611450195,-0.132827758789,0.032394409180,-0.020111083984,-0.041976928711,-0.002792358398
-0.123687744141,-0.124450683594,0.024017333984,-0.019393920898,-0.037475585938,-0.000106811523
-0.122512817383,-0.099868774414,0.006347656250,-0.016113281250,-0.032852172852,0.003402709961
-0.119766235352,-0.094238281250,0.003479003906,-0.016281127930,-0.032379150391,0.003570556641
-0.114151000977,-0.106689453125,-0.001708984375,-0.016021728516,-0.031143188477,0.001541137695
-0.110519409180,-0.115585327148,-0.007492065430,-0.016189575195,-0.030288696289,0.001846313477
-0.108657836914,-0.123275756836,-0.012741088867,-0.014343261719,-0.030502319336,0.005310058594
-0.107070922852,-0.121047973633,-0.015472412109,-0.013534545898,-0.031402587891,0.008163452148
-0.109634399414,-0.114578247070,-0.010055541992,-0.014556884766,-0.032485961914,0.010803222656
-0.111816406250,-0.117538452148,0.011596679688,-0.018127441406,-0.033737182617,0.013183593750
-0.112350463867,-0.124832153320,0.020889282227,-0.019241333008,-0.032989501953,0.013824462891
-0.108352661133,-0.136596679688,0.022308349609,-0.020889282227,-0.027664184570,0.017181396484
-0.103897094727,-0.137771606445,0.017013549805,-0.020782470703,-0.024505615234,0.019760131836
-0.100662231445,-0.135940551758,0.003921508789,-0.021209716797,-0.019104003906,0.025192260742
-0.100540161133,-0.135818481445,0.000656127930,-0.020584106445,-0.017807006836,0.027236938477
-0.096984863281,-0.134552001953,0.005401611328,-0.016708374023,-0.016677856445,0.031478881836
-0.093887329102,-0.129669189453,0.016296386719,-0.016510009766,-0.016067504883,0.033950805664
-0.090515136719,-0.123626708984,0.018127441406,-0.015716552734,-0.010345458984,0.037796020508
-0.082153320313,-0.123840332031,0.026107788086,-0.017410278320,-0.007675170898,0.038131713867
-0.078704833984,-0.132431030273,0.029052734375,-0.017288208008,-0.005035400391,0.038269042969
-0.071929931641,-0.144287109375,0.036209106445,-0.016738891602,0.001480102539,0.041793823242
-0.071716308594,-0.144729614258,0.039428710938,-0.016799926758,0.004592895508,0.044204711914
-0.069122314453,-0.134902954102,0.028350830078,-0.012420654297,0.011093139648,0.048538208008
-0.062835693359,-0.123107910156,0.022048950195,-0.009094238281,0.013015747070,0.050460815430
-0.052993774414,-0.096084594727,0.020507812500,-0.006225585938,0.013824462891,0.051269531250
-0.049255371094,-0.095581054688,0.000579833984,0.001586914063,0.013748168945,0.048797607422
-0.046051025391,-0.085525512695,0.006652832031,0.003311157227,0.010147094727,0.042465209961
-0.032424926758,-0.097625732422,0.002197265625,0.006591796875,0.006683349609,0.037857055664
-0.027969360352,-0.112213134766,0.016967773438,0.006607055664,0.003143310547,0.032852172852
-0.019287109375,-0.120941162109,0.043136596680,0.006820678711,0.003082275391,0.033660888672
-0.015350341797,-0.115051269531,0.049438476563,0.006057739258,0.006362915039,0.035110473633
-0.008453369141,-0.097534179688,0.035110473633,0.002807617188,0.015502929688,0.035461425781
-0.006195068359,-0.092086791992,0.021636962891,0.001937866211,0.019042968750,0.033737182617
0.000808715820,-0.099258422852,-0.006881713867,0.004074096680,0.020782470703,0.027603149414
0.004028320313,-0.113479614258,-0.007995605469,0.002975463867,0.019134521484,0.024841308594
0.006423950195,-0.129333496094,0.003417968750,-0.000701904297,0.016998291016,0.022445678711
0.008270263672,-0.144515991211,-0.005081176758,0.000335693359,0.018173217773,0.023788452148
0.007919311523,-0.140396118164,-0.020217895508,0.001586914063,0.019332885742,0.026107788086
0.013763427734,-0.130645751953,-0.036880493164,0.006652832031,0.018310546875,0.029327392578
0.015441894531,-0.117218017578,-0.037124633789,0.009841918945,0.015625000000,0.031478881836
0.024307250977,-0.086578369141,-0.023605346680,0.010604858398,0.010437011719,0.032043457031
0.029327392578,-0.083084106445,-0.013565063477,0.008590698242,0.009185791016,0.029434204102
0.033813476563,-0.094390869141,-0.002960205078,0.000946044922,0.010971069336,0.023071289063
0.035217285156,-0.098388671875,-0.006698608398,-0.000946044922,0.012756347656,0.021331787109
0.038345336914,-0.103698730469,-0.020919799805,-0.003479003906,0.014724731445,0.018981933594
0.041488647461,-0.108734130859,-0.026199340820,-0.003646850586,0.014328002930,0.017776489258
0.042510986328,-0.117340087891,-0.027526855469,-0.003143310547,0.012405395508,0.015716552734
0.043960571289,-0.130676269531,-0.026641845703,-0.001953125000,0.010925292969,0.016464233398
0.044967651367,-0.129913330078,-0.018661499023,-0.002212524414,0.009811401367,0.020019531250
0.047256469727,-0.111801147461,-0.007202148438,-0.000823974609,0.010192871094,0.021820068359
0.049285888672,-0.100387573242,-0.002944946289,-0.001403808594,0.011306762695,0.022598266602
0.050872802734,-0.090286254883,-0.000961303711,-0.002044677734,0.014236450195,0.020065307617
0.049270629883,-0.091766357422,0.006271362305,-0.002151489258,0.014862060547,0.018066406250
0.053375244141,-0.092346191406,0.029663085938,-0.004837036133,0.016708374023,0.015747070313
0.055526733398,-0.090637207031,0.018737792969,-0.007431030273,0.022064208984,0.014923095703
0.054809570313,-0.101043701172,-0.030563354492,-0.013076782227,0.031005859375,0.011993408203
0.055175781250,-0.108642578125,-0.045867919922,-0.013458251953,0.030654907227,0.011016845703
0.054840087891,-0.114227294922,-0.030242919922,-0.012130737305,0.022613525391,0.011413574219
0.060775756836,-0.097473144531,-0.018600463867,-0.010253906250,0.020202636719,0.012649536133
0.063217163086,-0.085174560547,-0.013656616211,-0.015441894531,0.022659301758,0.011184692383
0.066207885742,-0.084915161133,-0.036361694336,-0.015640258789,0.024826049805,0.008987426758
0.068084716797,-0.093597412109,-0.054016113281,-0.016662597656,0.026321411133,0.007080078125
0.065490722656,-0.123138427734,-0.075149536133,-0.011428833008,0.022872924805,0.003982543945
0.065612792969,-0.129287719727,-0.071136474609,-0.005401611328,0.017532348633,0.005310058594
0.068771362305,-0.096298217773,-0.033020019531,0.003189086914,0.007812500000,0.012130737305
0.069259643555,-0.078018188477,-0.012207031250,0.002426147461,0.006393432617,0.013229370117
0.069549560547,-0.069717407227,0.011505126953,-0.000259399414,0.009338378906,0.008636474609
0.068984985352,-0.071395874023,0.011230468750,-0.002090454102,0.012634277344,0.006240844727
0.068984985352,-0.077774047852,-0.008956909180,-0.008483886719,0.019241333008,0.002700805664
0.069000244141,-0.083648681641,-0.021041870117,-0.010925292969,0.020980834961,0.000991821289
0.069946289063,-0.090576171875,-0.033645629883,-0.014801025391,0.021789550781,-0.001327514648
0.070434570313,-0.103637695313,-0.052459716797,-0.016265869141,0.020950317383,-0.001754760742
0.068862915039,-0.110641479492,-0.054244995117,-0.015731811523,0.018890380859,-0.001953125000
0.068862915039,-0.113113403320,-0.029022216797,-0.012329101563,0.012512207031,0.000015258789
0.070571899414,-0.099822998047,-0.018692016602,-0.010131835938,0.012069702148,0.002182006836
0.071044921875,-0.074234008789,-0.025161743164,-0.009704589844,0.015655517578,0.002609252930
0.070144653320,-0.070236206055,-0.034606933594,-0.011322021484,0.017135620117,0.000579833984
0.070373535156,-0.095046997070,-0.043884277344,-0.013229370117,0.016281127930,-0.005935668945
0.070022583008,-0.117675781250,-0.048843383789,-0.011993408203,0.015457153320,-0.008621215820
0.069274902344,-0.137847900391,-0.063949584961,-0.010131835938,0.014205932617,-0.005569458008
0.068466186523,-0.130783081055,-0.068862915039,-0.008590698242,0.012176513672,-0.001403808594
0.069641113281,-0.100234985352,-0.058746337891,-0.004989624023,0.005691528320,0.004150390625
0.070495605469,-0.089645385742,-0.046569824219,-0.002838134766,0.002883911133,0.004104614258
0.070495605469,-0.090301513672,-0.033401489258,-0.001495361328,0.001907348633,0.000671386719
0.069503784180,-0.100921630859,-0.036911010742,-0.001525878906,0.002639770508,-0.000991821289
0.068725585938,-0.109893798828,-0.041015625000,-0.002029418945,0.001724243164,-0.001037597656
0.063858032227,-0.116455078125,-0.028152465820,-0.003906250000,0.000106811523,-0.000595092773
0.066894531250,-0.113159179688,-0.014663696289,-0.001708984375,-0.001083374023,0.001815795898
0.069213867188,-0.104431152344,0.005691528320,-0.000564575195,0.000320434570,0.001937866211
0.069854736328,-0.101547241211,-0.000213623047,-0.001220703125,0.003601074219,0.002044677734
0.068130493164,-0.091049194336,-0.026184082031,-0.003280639648,0.008117675781,0.002059936523

-0.106246948242,-0.146240234375,-0.079055786133,-0.020797729492,-0.006668090820,-0.094940185547
-0.114700317383,-0.170623779297,-0.076614379883,-0.024673461914,-0.012084960938,-0.092971801758
-0.115905761719,-0.197418212891,-0.066741943359,-0.027969360352,-0.024551391602,-0.081954956055
-0.114837646484,-0.200378417969,-0.060592651367,-0.028060913086,-0.030258178711,-0.073837280273
-0.122070312500,-0.179504394531,-0.039367675781,-0.028091430664,-0.039581298828,-0.055847167969
-0.116210937500,-0.167312622070,-0.031829833984,-0.026916503906,-0.042434692383,-0.048645019531
-0.119308471680,-0.146469116211,-0.026290893555,-0.034973144531,-0.042480468750,-0.036026000977
-0.123321533203,-0.139328002930,-0.035064697266,-0.041259765625,-0.040649414063,-0.030853271484
-0.128997802734,-0.151245117188,-0.064071655273,-0.046173095703,-0.041168212891,-0.023529052734
-0.136337280273,-0.169235229492,-0.063659667969,-0.046569824219,-0.044692993164,-0.020217895508
-0.146026611328,-0.184890747070,-0.024963378906,-0.035614013672,-0.056259155273,-0.011123657227
-0.147827148438,-0.172714233398,0.000091552734,-0.029861450195,-0.059936523438,-0.004974365234
-0.142700195313,-0.144042968750,0.043640136719,-0.021743774414,-0.059432983398,0.003326416016
-0.136581420898,-0.130798339844,0.054046630859,-0.021301269531,-0.054595947266,0.005996704102
-0.131912231445,-0.115600585938,0.038619995117,-0.019668579102,-0.040313720703,0.008300781250
-0.132354736328,-0.113174438477,0.028427124023,-0.018829345703,-0.035430908203,0.008575439453
-0.129409790039,-0.111770629883,0.020675659180,-0.015197753906,-0.031982421875,0.010055541992
-0.124847412109,-0.108718872070,0.018234252930,-0.015762329102,-0.030883789063,0.011810302734
-0.120147705078,-0.114273071289,0.014312744141,-0.020935058594,-0.028778076172,0.013397216797
-0.114624023438,-0.123550415039,0.013839721680,-0.022766113281,-0.028335571289,0.014328002930
-0.115203857422,-0.133773803711,0.010650634766,-0.017440795898,-0.029174804688,0.019088745117
-0.115219116211,-0.132278442383,0.021789550781,-0.016311645508,-0.029754638672,0.022903442383
-0.113082885742,-0.120864868164,0.023284912109,-0.018859863281,-0.026885986328,0.028060913086
-0.109512329102,-0.112243652344,0.016479492188,-0.018554687500,-0.024856567383,0.028457641602
-0.108551025391,-0.112792968750,0.015136718750,-0.018386840820,-0.023834228516,0.028442382813
-0.099365234375,-0.105575561523,0.008880615234,-0.014251708984,-0.022644042969,0.029769897461
-0.089477539063,-0.098770141602,0.003829956055,-0.013885498047,-0.021743774414,0.030334472656
-0.078063964844,-0.092269897461,-0.003753662109,-0.013397216797,-0.020431518555,0.029983520508
-0.073150634766,-0.101867675781,0.004394531250,-0.014541625977,-0.020828247070,0.028320312500
-0.068328857422,-0.136779785156,0.022293090820,-0.015319824219,-0.020202636719,0.025009155273
-0.066864013672,-0.150283813477,0.028686523438,-0.016571044922,-0.018280029297,0.025466918945
-0.070617675781,-0.154312133789,0.032852172852,-0.012237548828,-0.013229370117,0.030029296875
-0.065826416016,-0.146850585938,0.032012939453,-0.008453369141,-0.011154174805,0.032775878906
-0.062606811523,-0.135116577148,0.034576416016,-0.008438110352,-0.005844116211,0.035659790039
-0.060455322266,-0.130004882813,0.038269042969,-0.008499145508,-0.003311157227,0.036254882813
-0.047485351563,-0.129974365234,0.040939331055,-0.007217407227,0.001876831055,0.034881591797
-0.047317504883,-0.136932373047,0.040206909180,-0.007751464844,0.005157470703,0.033660888672
-0.046859741211,-0.137054443359,0.025726318359,-0.008316040039,0.012619018555,0.035369873047
-0.044692993164,-0.124908447266,0.021072387695,-0.004562377930,0.014816284180,0.037231445313
-0.039901733398,-0.102478027344,0.006484985352,0.005310058594,0.016876220703,0.037734985352
-0.034500122070,-0.098953247070,0.008712768555,0.006851196289,0.015960693359,0.036270141602
-0.027648925781,-0.089889526367,0.011016845703,0.015029907227,0.015899658203,0.032302856445
-0.021972656250,-0.103286743164,0.039215087891,-0.000183105469,0.016632080078,0.032257080078
-0.020233154297,-0.107955932617,0.040985107422,-0.001434326172,0.018890380859,0.030593872070
-0.017257690430,-0.114868164063,0.049880981445,-0.004135131836,0.026504516602,0.029357910156
-0.013931274414,-0.114868164063,0.040100097656,-0.000518798828,0.030868530273,0.028625488281
-0.009872436523,-0.102340698242,0.012863159180,-0.000106811523,0.037368774414,0.028182983398
-0.004699707031,-0.095550537109,-0.004180908203,-0.000167846680,0.039184570313,0.027496337891
0.003631591797,-0.101013183594,-0.032592773438,-0.002990722656,0.038619995117,0.023086547852
0.009841918945,-0.110351562500,-0.045028686523,-0.003601074219,0.036880493164,0.020828247070
0.014297485352,-0.141494750977,-0.054092407227,-0.005889892578,0.030776977539,0.018585205078
0.013565063477,-0.150558471680,-0.042922973633,-0.006759643555,0.026336669922,0.020141601563
0.020034790039,-0.119552612305,-0.029617309570,0.002349853516,0.020217895508,0.027877807617
0.022842407227,-0.096710205078,-0.021133422852,0.002960205078,0.018173217773,0.029632568359
0.030807495117,-0.076553344727,-0.011062622070,0.003707885742,0.015579223633,0.025115966797
0.032287597656,-0.085052490234,-0.000885009766,0.001022338867,0.014694213867,0.020629882813
0.033554077148,-0.096939086914,0.010437011719,-0.001510620117,0.016052246094,0.015060424805
0.035903930664,-0.106079101563,0.014343261719,-0.002319335938,0.018646240234,0.014526367188
0.039001464844,-0.107666015625,0.000640869141,-0.003982543945,0.026153564453,0.012390136719
0.039779663086,-0.129318237305,-0.042114257813,-0.005981445313,0.026809692383,0.011032104492
0.040405273438,-0.136077880859,-0.056961059570,-0.007537841797,0.025543212891,0.011520385742
0.042175292969,-0.130386352539,-0.052658081055,-0.004974365234,0.017547607422,0.016357421875
0.043167114258,-0.115661621094,-0.038528442383,-0.001586914063,0.012847900391,0.018859863281
0.046142578125,-0.085418701172,0.000701904297,0.000503540039,0.007202148438,0.019180297852
0.049987792969,-0.076171875000,0.014953613281,0.000671386719,0.007507324219,0.017303466797
0.052841186523,-0.079864501953,0.018386840820,-0.002441406250,0.013854980469,0.010437011719
0.051116943359,-0.083312988281,0.011047363281,-0.004562377930,0.017349243164,0.007873535156
0.053543090820,-0.089996337891,-0.003631591797,-0.007476806641,0.020690917969,0.004211425781
0.054183959961,-0.102523803711,-0.009933471680,-0.009292602539,0.021438598633,0.001800537109
0.051864624023,-0.131027221680,-0.007354736328,-0.013305664063,0.021057128906,-0.000411987305
0.051971435547,-0.130722045898,-0.002288818359,-0.012634277344,0.020416259766,0.001571655273
0.053939819336,-0.120239257813,-0.000152587891,-0.012802124023,0.022476196289,0.006027221680
0.054748535156,-0.096679687500,-0.013763427734,-0.013534545898,0.024398803711,0.006042480469
0.055419921875,-0.094360351563,-0.025222778320,-0.013031005859,0.025146484375,0.002716064453
0.056869506836,-0.098709106445,-0.038970947266,-0.010848999023,0.021728515625,0.001419067383
0.057113647461,-0.101791381836,-0.037139892578,-0.009674072266,0.018829345703,0.000503540039
0.057846069336,-0.107131958008,-0.019882202148,-0.005371093750,0.013870239258,-0.000473022461
0.058700561523,-0.108184814453,-0.014160156250,-0.002838134766,0.013214111328,-0.000427246094
0.056747436523,-0.114364624023,-0.012847900391,-0.001998901367,0.014526367188,-0.000762939453
0.053543090820,-0.117584228516,-0.007125854492,-0.002197265625,0.014419555664,-0.000717163086
0.055618286133,-0.105773925781,0.020416259766,-0.001876831055,0.013229370117,0.001403808594
0.055648803711,-0.088424682617,0.027694702148,-0.004104614258,0.015457153320,0.002532958984
0.058700561523,-0.062911987305,0.011993408203,-0.013824462891,0.024185180664,-0.000305175781
0.057052612305,-0.067535400391,-0.010040283203,-0.018096923828,0.028610229492,-0.004623413086
0.052307128906,-0.104873657227,-0.053390502930,-0.019622802734,0.031173706055,-0.013778686523
0.051376342773,-0.124267578125,-0.067871093750,-0.016723632813,0.028915405273,-0.015777587891
0.050231933594,-0.143478393555,-0.073028564453,-0.011077880859,0.019256591797,-0.012847900391
0.050491333008,-0.145050048828,-0.063598632813,-0.007873535156,0.013427734375,-0.009674072266
0.051742553711,-0.142639160156,-0.035812377930,-0.002304077148,0.005706787109,-0.003799438477
0.052536010742,-0.129577636719,-0.028320312500,-0.000885009766,0.004089355469,-0.001693725586
0.053634643555,-0.116500854492,-0.020431518555,0.000732421875,0.003143310547,0.001281738281
0.052581787109,-0.089141845703,-0.009857177734,0.000625610352,0.003143310547,0.000961303711
0.053695678711,-0.084320068359,-0.005355834961,0.000106811523,0.003433227539,-0.000976562500
0.050338745117,-0.097686767578,-0.007232666016,-0.002304077148,0.006011962891,-0.006271362305
0.049468994141,-0.112060546875,-0.012710571289,-0.004119873047,0.007369995117,-0.008148193359
0.048034667969,-0.138290405273,-0.029388427734,-0.004699707031,0.008712768555,-0.008743286133
0.047042846680,-0.145080566406,-0.037185668945,-0.003875732422,0.008361816406,-0.007278442383
0.047271728516,-0.141159057617,-0.042816162109,-0.002914428711,0.005279541016,-0.002258300781
0.048400878906,-0.127670288086,-0.036849975586,-0.002593994141,0.002593994141,0.000350952148
0.047607421875,-0.102798461914,-0.016555786133,-0.000122070313,-0.001342773438,0.001739501953
0.047714233398,-0.100784301758,-0.007034301758,0.000946044922,-0.001937866211,0.000228881836
0.046188354492,-0.112930297852,0.000915527344,0.001281738281,-0.000381469727,-0.002990722656
0.045867919922,-0.117675781250,0.000732421875,0.001220703125,0.000915527344,-0.003417968750
0.044967651367,-0.118469238281,-0.005813598633,0.001098632813,0.003234863281,-0.002685546875

-0.119384765625,-0.128067016602,-0.085189819336,-0.020050048828,-0.018478393555,-0.077987670898
-0.128021240234,-0.148895263672,-0.097167968750,-0.024200439453,-0.026016235352,-0.075531005859
-0.137481689453,-0.180755615234,-0.083724975586,-0.029083251953,-0.046081542969,-0.065567016602
-0.144958496094,-0.180099487305,-0.061096191406,-0.032455444336,-0.054534912109,-0.057342529297
-0.152160644531,-0.173965454102,-0.026229858398,-0.032867431641,-0.063232421875,-0.044250488281
-0.158432006836,-0.187622070313,-0.007125854492,-0.034103393555,-0.064743041992,-0.040954589844
-0.157775878906,-0.215026855469,0.031555175781,-0.029525756836,-0.064117431641,-0.032119750977
-0.157760620117,-0.219009399414,0.047088623047,-0.025222778320,-0.061264038086,-0.025527954102
-0.146484375000,-0.201583862305,0.059371948242,-0.020050048828,-0.050445556641,-0.009262084961
-0.141464233398,-0.182205200195,0.044784545898,-0.017181396484,-0.042266845703,-0.001541137695
-0.135375976563,-0.135421752930,0.002410888672,-0.013137817383,-0.030090332031,0.008621215820
-0.131469726563,-0.119796752930,-0.017944335938,-0.009368896484,-0.027481079102,0.009918212891
-0.125656127930,-0.110031127930,-0.037918090820,-0.003311157227,-0.029205322266,0.008407592773
-0.121566772461,-0.110427856445,-0.034317016602,-0.002548217773,-0.032073974609,0.008087158203
-0.119674682617,-0.109893798828,-0.015884399414,-0.006607055664,-0.036346435547,0.010040283203
-0.114089965820,-0.108535766602,-0.013168334961,-0.010528564453,-0.035522460938,0.011428833008
-0.113388061523,-0.108261108398,-0.013610839844,-0.012847900391,-0.033798217773,0.013183593750
-0.107681274414,-0.110519409180,-0.007934570313,-0.013809204102,-0.033889770508,0.014266967773
-0.107269287109,-0.117752075195,-0.004730224609,-0.016601562500,-0.032135009766,0.016052246094
-0.105285644531,-0.129302978516,-0.007980346680,-0.017288208008,-0.030105590820,0.018463134766
-0.102325439453,-0.119644165039,-0.016921997070,-0.014617919922,-0.027984619141,0.023788452148
-0.103469848633,-0.103713989258,-0.020919799805,-0.011932373047,-0.029312133789,0.024475097656
-0.100128173828,-0.100128173828,-0.015335083008,-0.009994506836,-0.030395507813,0.023452758789
-0.095855712891,-0.118545532227,-0.004486083984,-0.009353637695,-0.029953002930,0.021835327148
-0.094009399414,-0.133193969727,-0.002868652344,-0.008132934570,-0.027862548828,0.022415161133
-0.087417602539,-0.140930175781,-0.003616333008,-0.009414672852,-0.026245117188,0.024841308594
-0.084243774414,-0.140945434570,-0.009323120117,-0.012771606445,-0.022949218750,0.028106689453
-0.079177856445,-0.148483276367,-0.011001586914,-0.015182495117,-0.022476196289,0.029006958008
-0.077438354492,-0.158782958984,-0.001678466797,-0.019149780273,-0.021499633789,0.030883789063
-0.076522827148,-0.169754028320,0.018630981445,-0.024063110352,-0.019561767578,0.033752441406
-0.075271606445,-0.157852172852,0.020767211914,-0.024673461914,-0.016052246094,0.038040161133
-0.069656372070,-0.110229492188,0.007766723633,-0.021514892578,-0.008636474609,0.044097900391
-0.061996459961,-0.091903686523,0.003082275391,-0.019760131836,-0.006607055664,0.043807983398
-0.051605224609,-0.105178833008,0.002365112305,-0.017074584961,-0.004074096680,0.035903930664
-0.046981811523,-0.112564086914,0.004638671875,-0.014160156250,-0.003036499023,0.033905029297
-0.040740966797,-0.099670410156,0.006469726563,-0.009002685547,0.000000000000,0.034439086914
-0.037567138672,-0.099212646484,0.015670776367,-0.007858276367,0.000595092773,0.033279418945
-0.032745361328,-0.132644653320,0.016342163086,-0.004165649414,0.003005981445,0.027069091797
-0.030517578125,-0.140411376953,0.022933959961,-0.010711669922,0.003646850586,0.028076171875
-0.023178100586,-0.140670776367,0.031570434570,-0.005447387695,0.006942749023,0.030593872070
-0.020629882813,-0.141983032227,0.033508300781,-0.005218505859,0.010162353516,0.031173706055
-0.021743774414,-0.143157958984,0.022872924805,-0.001495361328,0.017776489258,0.032501220703
-0.019515991211,-0.129287719727,0.018051147461,0.000656127930,0.020004272461,0.034637451172
-0.016586303711,-0.105148315430,0.008743286133,0.004791259766,0.023239135742,0.037261962891
-0.004470825195,-0.069229125977,-0.001647949219,0.002655029297,0.025451660156,0.035186767578
0.001388549805,-0.073669433594,-0.018035888672,-0.000549316406,0.028167724609,0.025070190430
0.004608154297,-0.121810913086,-0.036636352539,-0.003295898438,0.026519775391,0.021514892578
0.007476806641,-0.139389038086,-0.034210205078,-0.002441406250,0.023468017578,0.023788452148
0.011795043945,-0.124313354492,-0.023284912109,0.001800537109,0.018768310547,0.027877807617
0.015197753906,-0.099792480469,-0.017410278320,0.002410888672,0.017654418945,0.030960083008
0.021728515625,-0.083312988281,0.005187988281,-0.002273559570,0.016952514648,0.028121948242
0.023269653320,-0.088470458984,0.012130737305,-0.003494262695,0.018112182617,0.024765014648
0.028442382813,-0.092529296875,0.019790649414,-0.004333496094,0.022338867188,0.020858764648
0.030761718750,-0.093383789063,0.017639160156,-0.005599975586,0.025527954102,0.019424438477
0.035003662109,-0.112060546875,-0.016418457031,-0.010040283203,0.033630371094,0.016143798828
0.034683227539,-0.128799438477,-0.039489746094,-0.011444091797,0.036254882813,0.014785766602
0.036361694336,-0.129577636719,-0.062927246094,-0.010803222656,0.032791137695,0.018981933594
0.039031982422,-0.110961914063,-0.054168701172,-0.006774902344,0.027801513672,0.021911621094
0.042495727539,-0.092208862305,-0.037139892578,-0.002593994141,0.020797729492,0.021850585938
0.047271728516,-0.073516845703,-0.008361816406,-0.004272460938,0.020401000977,0.019073486328
0.048522949219,-0.073776245117,0.001113891602,-0.006103515625,0.021209716797,0.012115478516
0.047714233398,-0.087875366211,0.013381958008,-0.008285522461,0.024078369141,0.009277343750
0.047973632813,-0.092010498047,0.016906738281,-0.009948730469,0.026016235352,0.007736206055
0.047134399414,-0.098541259766,0.015319824219,-0.014022827148,0.031585693359,0.005447387695
0.045120239258,-0.105850219727,0.008026123047,-0.014678955078,0.035140991211,0.004074096680
0.043533325195,-0.131454467773,-0.029830932617,-0.012512207031,0.042343139648,0.002365112305
0.045089721680,-0.133605957031,-0.051956176758,-0.012161254883,0.043518066406,0.004379272461
0.048049926758,-0.114227294922,-0.065261840820,-0.012664794922,0.037292480469,0.010101318359
0.051147460938,-0.102081298828,-0.056350708008,-0.012832641602,0.031997680664,0.011093139648
0.056884765625,-0.083770751953,-0.031295776367,-0.016265869141,0.025634765625,0.009643554688
0.059158325195,-0.080139160156,-0.024719238281,-0.018554687500,0.025207519531,0.007507324219
0.060852050781,-0.080230712891,-0.034362792969,-0.021942138672,0.027404785156,0.002166748047
0.059249877930,-0.091171264648,-0.043792724609,-0.022201538086,0.027816772461,-0.000396728516
0.057342529297,-0.103012084961,-0.048950195313,-0.018737792969,0.023025512695,-0.004013061523
0.057678222656,-0.117355346680,-0.027053833008,-0.016677856445,0.018707275391,-0.003524780273
0.058197021484,-0.110641479492,-0.011291503906,-0.014648437500,0.016860961914,-0.000732421875
0.059371948242,-0.098968505859,-0.007400512695,-0.015151977539,0.019165039063,-0.000976562500
0.056823730469,-0.098159790039,-0.017074584961,-0.015808105469,0.021362304688,-0.001800537109
0.054229736328,-0.103668212891,-0.023956298828,-0.015487670898,0.020217895508,-0.004089355469
0.052520751953,-0.110870361328,-0.019592285156,-0.016296386719,0.018722534180,-0.005233764648
0.052291870117,-0.132537841797,-0.014480590820,-0.017974853516,0.017990112305,-0.006637573242
0.052856445313,-0.137710571289,-0.017211914063,-0.018035888672,0.018661499023,-0.005523681641
0.055496215820,-0.120712280273,-0.026306152344,-0.016510009766,0.018722534180,-0.000350952148
0.054412841797,-0.106674194336,-0.027633666992,-0.015258789063,0.017883300781,0.001068115234
0.052902221680,-0.092468261719,-0.011932373047,-0.013763427734,0.013732910156,-0.000671386719
0.056976318359,-0.089126586914,-0.000137329102,-0.012420654297,0.012161254883,-0.002182006836
0.053970336914,-0.085052490234,0.010253906250,-0.013275146484,0.013473510742,-0.005859375000
0.050094604492,-0.096771240234,0.000885009766,-0.013534545898,0.015884399414,-0.008819580078
0.046234130859,-0.141220092773,-0.030654907227,-0.013015747070,0.018447875977,-0.013381958008
0.046417236328,-0.153396606445,-0.040130615234,-0.011489868164,0.016693115234,-0.011886596680
0.049926757813,-0.131225585938,-0.019653320313,-0.008666992188,0.008483886719,-0.003219604492
0.052566528320,-0.105743408203,-0.002975463867,-0.007141113281,0.006011962891,-0.000122070313
0.052597045898,-0.077911376953,0.002426147461,-0.006851196289,0.007995605469,-0.002349853516
0.049880981445,-0.080810546875,0.004287719727,-0.006317138672,0.008407592773,-0.006332397461
0.047958374023,-0.088287353516,0.015396118164,-0.006347656250,0.007095336914,-0.011367797852
0.046066284180,-0.087295532227,0.043426513672,-0.007507324219,0.008331298828,-0.011978149414
0.042037963867,-0.085693359375,0.039306640625,-0.009643554688,0.012619018555,-0.016845703125
0.022949218750,-0.152969360352,-0.035034179688,-0.008728027344,0.025039672852,-0.021697998047
0.020339965820,-0.196304321289,-0.060485839844,-0.005035400391,0.024887084961,-0.023956298828
0.032455444336,-0.206085205078,-0.066726684570,-0.002807617188,0.012298583984,-0.008880615234
0.036773681641,-0.155548095703,-0.040847778320,-0.003051757813,0.004791259766,0.002868652344
0.042190551758,-0.055480957031,0.016296386719,-0.003707885742,-0.001419067383,0.010787963867
0.037322998047,-0.042175292969,0.030883789063,-0.003402709961,0.000305175781,0.003997802734
0.040939331055,-0.077423095703,0.033950805664,-0.003311157227,0.007568359375,-0.013488769531

-0.110580444336,-0.146011352539,-0.053329467773,-0.010437011719,-0.023590087891,-0.062850952148
-0.114181518555,-0.154678344727,-0.060913085938,-0.010284423828,-0.025451660156,-0.057922363281
-0.119033813477,-0.131851196289,-0.093460083008,-0.010025024414,-0.029571533203,-0.045211791992
-0.126373291016,-0.113830566406,-0.102218627930,-0.011474609375,-0.034027099609,-0.040634155273
-0.139160156250,-0.105484008789,-0.080581665039,-0.018417358398,-0.048400878906,-0.037963867188
-0.147964477539,-0.115219116211,-0.058181762695,-0.023254394531,-0.054199218750,-0.037811279297
-0.152130126953,-0.130004882813,-0.026855468750,-0.029357910156,-0.057861328125,-0.033340454102
-0.153610229492,-0.127304077148,-0.021270751953,-0.032165527344,-0.056594848633,-0.028549194336
-0.151931762695,-0.121871948242,-0.013839721680,-0.032409667969,-0.054458618164,-0.020889282227
-0.149688720703,-0.122375488281,-0.007461547852,-0.030715942383,-0.053817749023,-0.018157958984
-0.144470214844,-0.125717163086,-0.000671386719,-0.026962280273,-0.050384521484,-0.013122558594
-0.140151977539,-0.123016357422,-0.002059936523,-0.025161743164,-0.047424316406,-0.010162353516
-0.134460449219,-0.110260009766,-0.014999389648,-0.018859863281,-0.042327880859,-0.004776000977
-0.132812500000,-0.101974487305,-0.018264770508,-0.016311645508,-0.041183471680,-0.002548217773
-0.129211425781,-0.098663330078,-0.027679443359,-0.009994506836,-0.039062500000,-0.001235961914
-0.129257202148,-0.106857299805,-0.036483764648,-0.008041381836,-0.037643432617,-0.001647949219
-0.130157470703,-0.121795654297,-0.047943115234,-0.008071899414,-0.038208007813,0.001159667969
-0.129074096680,-0.122314453125,-0.039260864258,-0.009246826172,-0.039947509766,0.004196166992
-0.123016357422,-0.107421875000,-0.021545410156,-0.010665893555,-0.040115356445,0.010635375977
-0.118408203125,-0.101654052734,-0.023284912109,-0.011718750000,-0.037872314453,0.012542724609
-0.113037109375,-0.107177734375,-0.040130615234,-0.012359619141,-0.033798217773,0.013504028320
-0.112899780273,-0.118621826172,-0.039505004883,-0.013519287109,-0.033676147461,0.013748168945
-0.107070922852,-0.143814086914,-0.031997680664,-0.017425537109,-0.033203125000,0.016067504883
-0.105422973633,-0.157257080078,-0.036102294922,-0.019042968750,-0.031433105469,0.018234252930
-0.112655639648,-0.166915893555,-0.044647216797,-0.023300170898,-0.028701782227,0.025756835938
-0.111511230469,-0.158798217773,-0.034332275391,-0.022918701172,-0.028900146484,0.029998779297
-0.091567993164,-0.101913452148,-0.039367675781,-0.016723632813,-0.023071289063,0.038833618164
-0.083328247070,-0.063919067383,-0.060058593750,-0.011840820313,-0.018997192383,0.041992187500
-0.066833496094,-0.019134521484,-0.065780639648,-0.008224487305,-0.021423339844,0.038238525391
-0.061004638672,-0.033676147461,-0.045974731445,-0.008956909180,-0.025207519531,0.030639648438
-0.055282592773,-0.121582031250,-0.005798339844,-0.014251708984,-0.027160644531,0.017395019531
-0.054321289063,-0.157058715820,0.007125854492,-0.017501831055,-0.024841308594,0.015930175781
-0.061096191406,-0.200424194336,0.008666992188,-0.019241333008,-0.015869140625,0.021301269531
-0.065841674805,-0.200698852539,0.006454467773,-0.020065307617,-0.010879516602,0.028167724609
-0.065032958984,-0.146667480469,-0.009201049805,-0.018066406250,-0.001129150391,0.043548583984
-0.057189941406,-0.097076416016,-0.034576416016,-0.014526367188,0.003158569336,0.049270629883
-0.039505004883,-0.022750854492,-0.068908691406,-0.004241943359,0.003738403320,0.047714233398
-0.029052734375,-0.016082763672,-0.058532714844,-0.003448486328,-0.000839233398,0.040420532227
-0.018203735352,-0.091308593750,-0.011123657227,-0.007308959961,-0.006332397461,0.021789550781
-0.017135620117,-0.135589599609,0.005615234375,-0.011489868164,-0.005096435547,0.017471313477
-0.019332885742,-0.176437377930,0.020187377930,-0.015380859375,0.002380371094,0.022903442383
-0.020339965820,-0.165374755859,0.014175415039,-0.014251708984,0.007446289063,0.029754638672
-0.021301269531,-0.139312744141,-0.026901245117,-0.010360717773,0.017028808594,0.038833618164
-0.014114379883,-0.089218139648,-0.045211791992,-0.008651733398,0.018569946289,0.039642333984
-0.007324218750,-0.076583862305,-0.059692382813,-0.007614135742,0.015853881836,0.034225463867
0.004516601563,-0.090774536133,-0.065887451172,-0.008132934570,0.012405395508,0.029754638672
0.007369995117,-0.117095947266,-0.054183959961,-0.009338378906,0.008743286133,0.024719238281
0.010528564453,-0.138565063477,-0.019363403320,-0.010406494141,0.004959106445,0.026840209961
0.012359619141,-0.128295898438,-0.002349853516,-0.010253906250,0.005249023438,0.029708862305
0.018325805664,-0.094024658203,0.001861572266,-0.010284423828,0.011215209961,0.031936645508
0.019760131836,-0.076766967773,-0.001968383789,-0.010955810547,0.014053344727,0.031158447266
0.028793334961,-0.058731079102,-0.004364013672,-0.011779785156,0.017593383789,0.025665283203
0.031494140625,-0.065322875977,-0.013839721680,-0.012680053711,0.020080566406,0.020919799805
0.032653808594,-0.100067138672,-0.029281616211,-0.013122558594,0.022476196289,0.013015747070
0.031372070313,-0.116027832031,-0.023773193359,-0.012405395508,0.021713256836,0.011459350586
0.031967163086,-0.131851196289,-0.000930786133,-0.010742187500,0.021377563477,0.013427734375
0.030380249023,-0.125946044922,0.008285522461,-0.010787963867,0.023422241211,0.016113281250
0.030868530273,-0.110580444336,0.015731811523,-0.012802124023,0.028930664063,0.018280029297
0.033798217773,-0.101318359375,0.003967285156,-0.013900756836,0.033279418945,0.018142700195
0.035812377930,-0.092727661133,-0.015335083008,-0.014526367188,0.039779663086,0.016601562500
0.039962768555,-0.078277587891,-0.059036254883,-0.014739990234,0.040084838867,0.014724731445
0.042144775391,-0.079132080078,-0.075653076172,-0.015380859375,0.038070678711,0.007858276367
0.043685913086,-0.104660034180,-0.083694458008,-0.013671875000,0.028335571289,0.004318237305
0.042083740234,-0.123229980469,-0.067214965820,-0.012741088867,0.021926879883,0.001922607422
0.039306640625,-0.133148193359,0.014251708984,-0.012496948242,0.011917114258,0.003921508789
0.040863037109,-0.128555297852,0.054962158203,-0.013183593750,0.012603759766,0.005966186523
0.042327880859,-0.108352661133,0.049606323242,-0.012878417969,0.031829833984,0.009033203125
0.040130615234,-0.102340698242,0.000061035156,-0.014175415039,0.042953491211,0.009246826172
0.039138793945,-0.102447509766,-0.091217041016,-0.011184692383,0.049118041992,0.006454467773
0.041168212891,-0.103424072266,-0.111557006836,-0.009353637695,0.042907714844,0.004776000977
0.045608520508,-0.111282348633,-0.100646972656,-0.008728027344,0.022460937500,0.002960205078
0.046951293945,-0.112655639648,-0.070022583008,-0.006118774414,0.013885498047,0.002243041992
0.048614501953,-0.121475219727,-0.017852783203,-0.000427246094,0.006637573242,0.000854492188
0.047225952148,-0.122909545898,-0.002243041992,-0.005355834961,0.008026123047,0.001419067383
0.047698974609,-0.119812011719,0.001983642578,-0.004867553711,0.013916015625,0.003036499023
0.047363281250,-0.106750488281,0.000961303711,-0.004196166992,0.016983032227,0.003173828125
0.046936035156,-0.100906372070,-0.005767822266,-0.009368896484,0.022201538086,0.001480102539
0.045150756836,-0.109237670898,-0.026794433594,-0.009948730469,0.023101806641,-0.000228881836
0.045745849609,-0.113784790039,-0.032684326172,-0.015365600586,0.023391723633,-0.001281738281
0.045532226563,-0.119018554688,-0.044235229492,-0.014602661133,0.021179199219,-0.000228881836
0.045318603516,-0.120422363281,-0.049560546875,-0.013275146484,0.019882202148,0.000045776367
0.045867919922,-0.123168945313,-0.064865112305,-0.005432128906,0.016326904297,-0.000045776367
0.045486450195,-0.120346069336,-0.057510375977,-0.004806518555,0.011520385742,0.000839233398
0.048110961914,-0.112548828125,-0.012588500977,0.000686645508,0.003387451172,0.000808715820
0.049179077148,-0.106384277344,0.010345458984,-0.002822875977,0.003997802734,0.000686645508
0.047363281250,-0.107772827148,-0.000823974609,-0.005783081055,0.011627197266,-0.000473022461
0.043930053711,-0.114074707031,-0.018142700195,-0.006988525391,0.014877319336,-0.001220703125
0.043579101563,-0.134460449219,-0.040237426758,-0.005065917969,0.014663696289,-0.002044677734
0.044158935547,-0.135543823242,-0.035766601563,-0.007797241211,0.012268066406,-0.000350952148
0.048080444336,-0.111984252930,-0.026550292969,-0.003662109375,0.010070800781,0.003356933594
0.048126220703,-0.100387573242,-0.022460937500,-0.005264282227,0.010864257813,0.003250122070
0.047256469727,-0.103698730469,-0.036071777344,-0.004196166992,0.010314941406,-0.000274658203
0.046295166016,-0.118484497070,-0.037399291992,-0.003021240234,0.008331298828,-0.000991821289
0.046859741211,-0.116226196289,-0.021865844727,-0.002029418945,0.004776000977,0.000289916992
0.047500610352,-0.102905273438,-0.020034790039,-0.000137329102,0.004806518555,-0.000076293945
0.045867919922,-0.101394653320,-0.011489868164,-0.000701904297,0.005783081055,-0.002639770508
0.044754028320,-0.120834350586,-0.014480590820,-0.002883911133,0.006546020508,-0.003448486328
0.043655395508,-0.124069213867,-0.015258789063,-0.002914428711,0.007232666016,-0.003036499023
0.043853759766,-0.119430541992,-0.013656616211,-0.002700805664,0.007919311523,-0.001556396484
0.043304443359,-0.116287231445,-0.014480590820,-0.000701904297,0.008621215820,-0.001541137695
0.041275024414,-0.129821777344,-0.048202514648,-0.003234863281,0.010894775391,-0.002243041992
0.040786743164,-0.135101318359,-0.061584472656,-0.002136230469,0.009735107422,-0.002044677734
0.042739868164,-0.120834350586,-0.053176879883,0.000167846680,0.001663208008,0.000854492188
0.043075561523,-0.109710693359,-0.037200927734,0.000793457031,-0.001617431641,0.001388549805

-0.112655639648,-0.168914794922,-0.056228637695,0.008895874023,0.044708251953,-0.023696899414
-0.112640380859,-0.181777954102,-0.079147338867,0.010055541992,0.044311523438,-0.019851684570
-0.108886718750,-0.134078979492,-0.085922241211,0.012649536133,0.036483764648,-0.004959106445
-0.103210449219,-0.097702026367,-0.058395385742,0.014404296875,0.030151367188,-0.000961303711
-0.099578857422,-0.049606323242,-0.018356323242,0.013412475586,0.026733398438,-0.001586914063
-0.101608276367,-0.053222656250,-0.021453857422,0.012985229492,0.028961181641,-0.005996704102
-0.104049682617,-0.096282958984,-0.020599365234,0.013336181641,0.028991699219,-0.012390136719
-0.105758666992,-0.108520507813,-0.008178710938,0.011581420898,0.028198242188,-0.011413574219
-0.112442016602,-0.143356323242,-0.018417358398,0.009796142578,0.032211303711,-0.009307861328
-0.112457275391,-0.159469604492,-0.040359497070,0.009155273438,0.034637451172,-0.006774902344
-0.115127563477,-0.174972534180,-0.060897827148,0.007751464844,0.031738281250,0.000610351563
-0.117736816406,-0.191162109375,-0.051406860352,0.007125854492,0.026550292969,0.006378173828
-0.115142822266,-0.164260864258,-0.026473999023,0.006500244141,0.021636962891,0.022079467773
-0.109252929688,-0.087875366211,-0.002609252930,0.005813598633,0.022750854492,0.025497436523
-0.104919433594,-0.067230224609,-0.005401611328,0.006286621094,0.024703979492,0.025039672852
-0.101226806641,-0.079040527344,-0.031723022461,0.005645751953,0.027389526367,0.017761230469
-0.098480224609,-0.097930908203,-0.035369873047,0.005538940430,0.025833129883,0.015228271484
-0.094238281250,-0.106262207031,-0.035690307617,0.002655029297,0.023178100586,0.017272949219
-0.095046997070,-0.121154785156,-0.044662475586,0.002716064453,0.022979736328,0.016464233398
-0.089920043945,-0.127212524414,-0.061447143555,0.005310058594,0.019409179688,0.019760131836
-0.089752197266,-0.110809326172,-0.060134887695,0.005416870117,0.016159057617,0.023193359375
-0.080856323242,-0.081253051758,-0.005020141602,0.006179809570,0.006561279297,0.024139404297
-0.072708129883,-0.064498901367,0.019638061523,0.005920410156,0.006057739258,0.024063110352
-0.069320678711,-0.075439453125,-0.007965087891,0.003890991211,0.015472412109,0.016967773438
-0.071014404297,-0.110702514648,-0.035430908203,0.003067016602,0.017684936523,0.012207031250
-0.073150634766,-0.148147583008,-0.055358886719,0.002273559570,0.012359619141,0.011337280273
-0.077468872070,-0.198883056641,-0.051422119141,0.001541137695,0.007965087891,0.015457153320
-0.083023071289,-0.207809448242,-0.035934448242,0.001190185547,0.000259399414,0.028869628906
-0.081146240234,-0.142807006836,0.015762329102,0.001571655273,0.000000000000,0.038055419922
-0.072555541992,-0.078887939453,0.021850585938,0.000991821289,0.003189086914,0.045486450195
-0.058517456055,-0.011062622070,-0.016860961914,0.002502441406,0.012115478516,0.039367675781
-0.055709838867,-0.038436889648,-0.039077758789,0.002120971680,0.011886596680,0.027282714844
-0.054901123047,-0.153686523438,-0.042221069336,0.001296997070,0.003921508789,0.011047363281
-0.053756713867,-0.182586669922,-0.037200927734,0.001174926758,0.000747680664,0.013961791992
-0.058395385742,-0.153686523438,-0.032562255859,0.001663208008,-0.002395629883,0.029098510742
-0.051437377930,-0.116210937500,-0.012802124023,0.002532958984,-0.005523681641,0.033874511719
-0.040206909180,-0.077224731445,-0.003906250000,0.001983642578,-0.004302978516,0.032043457031
-0.038070678711,-0.093917846680,-0.019958496094,0.001541137695,-0.002731323242,0.026596069336
-0.034835815430,-0.137725830078,-0.033432006836,0.001052856445,-0.005966186523,0.021636962891
-0.029632568359,-0.119262695313,-0.023651123047,0.000350952148,-0.008987426758,0.025085449219
-0.022583007813,-0.064086914063,-0.006210327148,-0.001708984375,-0.011398315430,0.026748657227
-0.018997192383,-0.072967529297,-0.002624511719,-0.002761840820,-0.011413574219,0.021026611328
-0.015792846680,-0.129577636719,-0.019348144531,-0.003860473633,-0.009948730469,0.011978149414
-0.015258789063,-0.137435913086,-0.029312133789,-0.003936767578,-0.010421752930,0.013458251953
-0.014617919922,-0.132446289063,-0.036102294922,-0.004806518555,-0.014785766602,0.018325805664
-0.013580322266,-0.104934692383,-0.029052734375,-0.004501342773,-0.017654418945,0.018539428711
-0.011276245117,-0.098953247070,-0.021636962891,-0.002517700195,-0.021224975586,0.014663696289
-0.007186889648,-0.097854614258,-0.015747070313,-0.004013061523,-0.022232055664,0.013168334961
-0.005645751953,-0.089447021484,-0.008804321289,-0.004852294922,-0.025070190430,0.011276245117
-0.005737304688,-0.083297729492,0.032516479492,-0.003662109375,-0.026901245117,0.008514404297
-0.004180908203,-0.107879638672,0.093444824219,-0.001831054688,-0.026031494141,0.001815795898
0.001190185547,-0.122238159180,0.105438232422,-0.001647949219,-0.019180297852,0.000076293945
0.002288818359,-0.137969970703,0.088317871094,-0.000640869141,0.000839233398,0.001831054688
-0.000839233398,-0.141342163086,0.013137817383,-0.002960205078,0.006484985352,0.004409790039
-0.002304077148,-0.135101318359,-0.015441894531,-0.003143310547,0.007171630859,0.006561279297
-0.001022338867,-0.119842529297,-0.018966674805,-0.003112792969,-0.000991821289,0.007827758789
-0.000152587891,-0.112976074219,0.001281738281,-0.002593994141,-0.005081176758,0.007293701172
0.000961303711,-0.107025146484,0.043960571289,-0.001312255859,-0.007125854492,0.005111694336
0.001708984375,-0.108612060547,0.053833007813,-0.000930786133,-0.004806518555,0.003707885742
0.001190185547,-0.123626708984,0.029052734375,-0.000030517578,0.003143310547,0.001037597656
0.001251220703,-0.126495361328,0.010253906250,0.000228881836,0.005249023438,0.000946044922
0.002273559570,-0.117965698242,0.001022338867,0.000915527344,0.003265380859,0.001815795898
0.001876831055,-0.119659423828,0.002960205078,0.000854492188,0.002136230469,0.000976562500
0.000549316406,-0.142883300781,0.001068115234,0.000564575195,0.001892089844,-0.000946044922
0.000656127930,-0.145935058594,-0.000839233398,0.000625610352,0.001846313477,0.000183105469
0.001373291016,-0.141891479492,-0.008148193359,0.000717163086,0.001480102539,0.003265380859
0.003143310547,-0.129135131836,-0.008468627930,0.000549316406,0.000701904297,0.003799438477
0.004653930664,-0.123184204102,-0.006484985352,0.000701904297,-0.000167846680,0.003631591797
0.005447387695,-0.117813110352,-0.000152587891,0.000976562500,-0.001052856445,0.002853393555
0.006561279297,-0.117889404297,0.004791259766,0.000747680664,-0.001205444336,0.002090454102
0.005950927734,-0.115997314453,0.006271362305,0.000335693359,-0.000045776367,0.001022338867
0.006484985352,-0.119323730469,0.007156372070,0.000274658203,0.000289916992,0.000106811523
0.006515502930,-0.125747680664,-0.003524780273,-0.000213623047,0.001571655273,-0.000640869141
0.005935668945,-0.127563476563,-0.012298583984,-0.000579833984,0.001846313477,-0.000518798828
0.006088256836,-0.132736206055,-0.015472412109,-0.000518798828,-0.000457763672,-0.000320434570
0.006179809570,-0.128479003906,-0.009292602539,-0.000396728516,-0.001892089844,0.000518798828
0.005767822266,-0.128158569336,-0.002014160156,-0.000656127930,-0.002700805664,0.000534057617
0.005279541016,-0.127288818359,0.000854492188,-0.000885009766,-0.002929687500,0.000625610352
0.004974365234,-0.119796752930,0.000350952148,-0.001403808594,-0.002639770508,0.000808715820
0.004028320313,-0.121627807617,-0.000762939453,-0.001571655273,-0.002670288086,-0.000045776367
0.003936767578,-0.124191284180,0.021575927734,-0.000930786133,-0.004501342773,-0.000869750977
0.004486083984,-0.122314453125,0.030929565430,-0.000442504883,-0.003890991211,-0.000885009766
0.003585815430,-0.125991821289,0.013397216797,-0.000152587891,0.000976562500,-0.001464843750
0.002761840820,-0.131820678711,-0.001205444336,-0.000518798828,0.002075195313,-0.001907348633
0.003326416016,-0.132629394531,-0.007156372070,-0.000595092773,-0.000473022461,-0.000793457031
0.003250122070,-0.125946044922,0.000350952148,-0.000335693359,-0.001525878906,-0.000656127930
0.002258300781,-0.133514404297,0.002975463867,-0.000213623047,-0.002243041992,-0.001434326172
0.001647949219,-0.140777587891,0.017242431641,-0.000076293945,-0.002578735352,-0.000503540039
0.002456665039,-0.133911132813,0.020034790039,0.000091552734,-0.001785278320,0.000900268555
0.003204345703,-0.120193481445,0.008758544922,0.000381469727,0.000381469727,0.001541137695
0.003494262695,-0.118270874023,0.007019042969,0.000396728516,0.000213623047,0.000823974609
0.004119873047,-0.123840332031,0.004684448242,0.000228881836,-0.000045776367,-0.000747680664
0.004150390625,-0.126190185547,0.000228881836,0.000152587891,0.000167846680,-0.000991821289
0.005004882813,-0.119140625000,-0.003723144531,0.000061035156,-0.000656127930,-0.000518798828
0.004287719727,-0.118392944336,-0.003936767578,0.000030517578,-0.001312255859,-0.000930786133
0.003021240234,-0.132415771484,-0.002197265625,-0.000091552734,-0.002670288086,-0.002456665039
0.002853393555,-0.134780883789,-0.001739501953,-0.000457763672,-0.003082275391,-0.001953125000
0.001358032227,-0.126525878906,0.005294799805,-0.001068115234,-0.003982543945,-0.000686645508
0.000747680664,-0.128189086914,0.017990112305,-0.000854492188,-0.004791259766,-0.000961303711
0.000564575195,-0.135925292969,0.035537719727,0.000411987305,-0.003158569336,-0.001296997070
0.001754760742,-0.133636474609,0.029739379883,0.000381469727,-0.000457763672,-0.000564575195
0.001785278320,-0.126068115234,-0.001312255859,-0.000396728516,0.003265380859,0.000564575195
0.002182006836,-0.119812011719,-0.007965087891,-0.000122070313,0.002517700195,-0.000122070313
0.002258300781,-0.119873046875,-0.008178710938,0.000015258789,-0.000915527344,-0.001220703125

-0.052734375000,-0.175827026367,0.071929931641,-0.002273559570,-0.034790039063,0.031524658203
-0.049972534180,-0.181823730469,0.077285766602,-0.005615234375,-0.029953002930,0.032897949219
-0.047027587891,-0.181274414063,0.073852539063,-0.011993408203,-0.019546508789,0.039260864258
-0.045120239258,-0.161544799805,0.068847656250,-0.012145996094,-0.015213012695,0.044769287109
-0.037246704102,-0.125228881836,0.040863037109,-0.005798339844,-0.007110595703,0.050491333008
-0.032730102539,-0.122528076172,0.028930664063,-0.009811401367,-0.005264282227,0.050323486328
-0.025543212891,-0.128204345703,0.045730590820,-0.008422851563,-0.007736206055,0.048812866211
-0.018661499023,-0.119949340820,0.073806762695,-0.007293701172,-0.009841918945,0.050659179688
0.000976562500,-0.070480346680,0.103683471680,-0.004486083984,-0.004791259766,0.055664062500
0.011367797852,-0.046966552734,0.090652465820,-0.003601074219,0.002426147461,0.054718017578
0.019790649414,-0.039596557617,0.027923583984,-0.002990722656,0.015090942383,0.043899536133
0.032897949219,-0.050140380859,0.012451171875,-0.002731323242,0.014114379883,0.038040161133
0.038711547852,-0.067428588867,0.015640258789,-0.002960205078,0.005767822266,0.030014038086
0.047439575195,-0.096984863281,0.046813964844,-0.002243041992,0.004959106445,0.028747558594
0.048843383789,-0.100112915039,0.046676635742,-0.001464843750,0.007202148438,0.029373168945
0.057235717773,-0.063751220703,0.063232421875,0.001159667969,0.008605957031,0.032714843750
0.061599731445,-0.045654296875,0.069564819336,0.002304077148,0.010635375977,0.032287597656
0.070663452148,-0.036575317383,0.044128417969,-0.000625610352,0.019577026367,0.025695800781
0.072662353516,-0.037368774414,0.023345947266,-0.001358032227,0.022659301758,0.022460937500
0.075134277344,-0.037094116211,0.023269653320,-0.004470825195,0.020553588867,0.016082763672
0.075927734375,-0.045852661133,0.033767700195,-0.005126953125,0.019409179688,0.012313842773
0.074691772461,-0.079147338867,0.030136108398,-0.006881713867,0.024032592773,0.005981445313
0.072830200195,-0.098159790039,0.023223876953,-0.006408691406,0.026565551758,0.004547119141
0.072433471680,-0.110046386719,0.031753540039,-0.001724243164,0.027221679688,0.007614135742
0.077407836914,-0.083526611328,0.047470092773,-0.000701904297,0.027389526367,0.010986328125
0.079849243164,-0.055282592773,0.057754516602,-0.001541137695,0.035476684570,0.013000488281
0.076904296875,-0.014373779297,0.033508300781,-0.005599975586,0.041976928711,0.009521484375
0.074356079102,-0.012390136719,0.003677368164,-0.005783081055,0.047851562500,0.003311157227
0.062011718750,-0.035797119141,-0.038223266602,-0.004425048828,0.048736572266,-0.010482788086
0.059051513672,-0.065078735352,-0.047805786133,-0.003952026367,0.045593261719,-0.016693115234
0.050949096680,-0.143218994141,-0.070007324219,-0.005310058594,0.042160034180,-0.023880004883
0.053848266602,-0.173461914063,-0.074035644531,-0.005950927734,0.038406372070,-0.021652221680
0.063476562500,-0.169692993164,-0.057647705078,-0.006057739258,0.028793334961,-0.006149291992
0.067413330078,-0.123458862305,-0.038681030273,-0.003921508789,0.025726318359,0.003295898438
0.078155517578,-0.021697998047,0.003707885742,-0.004623413086,0.023834228516,0.010375976563
0.079986572266,0.014022827148,0.021759033203,-0.007263183594,0.024917602539,0.005920410156
0.058013916016,0.038742065430,0.012145996094,-0.009429931641,0.033737182617,-0.013854980469
0.033538818359,-0.000518798828,-0.025405883789,-0.008316040039,0.039642333984,-0.028121948242
0.009933471680,-0.182205200195,-0.113891601563,-0.002624511719,0.045516967773,-0.054397583008
0.017868041992,-0.247695922852,-0.123718261719,-0.001419067383,0.038604736328,-0.051879882813
0.028045654297,-0.214660644531,-0.063461303711,-0.005111694336,0.020874023438,-0.015258789063
0.044479370117,-0.128707885742,-0.034454345703,-0.006530761719,0.018692016602,0.001632690430
0.047073364258,-0.053817749023,-0.023162841797,-0.003311157227,0.023696899414,0.004287719727
0.053497314453,0.027160644531,-0.026473999023,-0.002700805664,0.025970458984,-0.004623413086
0.046264648438,0.036071777344,-0.036697387695,-0.002655029297,0.026992797852,-0.028579711914
0.005996704102,-0.027877807617,-0.054443359375,-0.009246826172,0.025329589844,-0.042831420898
-0.008087158203,-0.117172241211,-0.082077026367,-0.008651733398,0.026184082031,-0.055877685547
-0.009124755859,-0.267028808594,-0.131484985352,-0.003997802734,0.023040771484,-0.058486938477
-0.001159667969,-0.275817871094,-0.114562988281,-0.003540039063,0.013763427734,-0.042327880859
0.011459350586,-0.137741088867,-0.025207519531,-0.003646850586,0.001235961914,-0.007293701172
0.015869140625,-0.072250366211,-0.011520385742,-0.002502441406,0.004226684570,-0.002548217773
0.016387939453,-0.017578125000,-0.031967163086,0.001052856445,0.013031005859,-0.015167236328
0.010940551758,-0.019897460938,-0.040176391602,-0.000320434570,0.013259887695,-0.024963378906
-0.001373291016,-0.033004760742,-0.016006469727,-0.005035400391,0.008499145508,-0.038070678711
-0.015563964844,-0.044097900391,-0.012084960938,-0.007385253906,0.008758544922,-0.042602539063
-0.042343139648,-0.167648315430,-0.067550659180,-0.008728027344,0.015045166016,-0.057525634766
-0.047531127930,-0.239273071289,-0.099487304688,-0.007995605469,0.015701293945,-0.059478759766
-0.040939331055,-0.267211914063,-0.129013061523,-0.005508422852,0.006439208984,-0.036148071289
-0.035125732422,-0.199920654297,-0.113967895508,-0.005432128906,-0.001129150391,-0.019027709961
-0.030853271484,-0.057815551758,-0.054763793945,-0.007354736328,-0.012512207031,-0.004623413086
-0.028320312500,-0.027267456055,-0.031219482422,-0.008163452148,-0.014587402344,-0.010147094727
-0.032745361328,-0.065628051758,-0.004959106445,-0.008728027344,-0.013397216797,-0.031143188477
-0.036682128906,-0.094711303711,-0.008056640625,-0.010711669922,-0.011001586914,-0.036346435547
-0.042510986328,-0.092178344727,-0.014205932617,-0.014038085938,-0.008819580078,-0.034332275391
-0.047363281250,-0.081817626953,-0.012634277344,-0.013214111328,-0.009017944336,-0.034072875977
-0.062332153320,-0.125534057617,-0.031875610352,-0.013031005859,-0.007019042969,-0.040634155273
-0.070846557617,-0.168060302734,-0.054336547852,-0.014724731445,-0.005203247070,-0.043609619141
-0.076202392578,-0.213241577148,-0.085281372070,-0.011856079102,-0.008911132813,-0.035537719727
-0.077423095703,-0.189376831055,-0.082855224609,-0.007980346680,-0.014022827148,-0.025573730469
-0.076446533203,-0.103073120117,-0.060806274414,-0.004562377930,-0.021881103516,-0.013137817383
-0.078323364258,-0.080505371094,-0.059036254883,-0.003540039063,-0.023452758789,-0.014297485352
-0.082916259766,-0.091094970703,-0.065994262695,-0.000701904297,-0.027343750000,-0.023208618164
-0.085494995117,-0.103302001953,-0.060989379883,-0.001678466797,-0.030319213867,-0.025466918945
-0.091247558594,-0.115768432617,-0.042358398438,-0.003829956055,-0.035415649414,-0.025344848633
-0.094253540039,-0.129440307617,-0.032608032227,-0.005325317383,-0.036605834961,-0.025558471680
-0.100296020508,-0.185043334961,-0.014007568359,-0.008926391602,-0.036804199219,-0.025726318359
-0.100936889648,-0.211334228516,-0.006652832031,-0.010025024414,-0.035461425781,-0.022674560547
-0.097366333008,-0.225723266602,-0.008544921875,-0.009155273438,-0.030319213867,-0.007843017578
-0.099075317383,-0.212661743164,-0.023773193359,-0.010208129883,-0.026870727539,0.000350952148
-0.094329833984,-0.167678833008,-0.020080566406,-0.009429931641,-0.028213500977,0.012725830078
-0.087905883789,-0.144989013672,-0.000366210937,-0.007934570313,-0.029739379883,0.016265869141
-0.073272705078,-0.103027343750,0.040969848633,-0.007827758789,-0.027465820313,0.020507812500
-0.065933227539,-0.093322753906,0.045684814453,-0.007843017578,-0.021774291992,0.019699096680
-0.055419921875,-0.080490112305,0.008407592773,-0.005813598633,-0.007812500000,0.017410278320
-0.051727294922,-0.071670532227,-0.011993408203,-0.005691528320,-0.004623413086,0.016937255859
-0.050170898438,-0.079483032227,-0.025878906250,-0.006423950195,-0.005813598633,0.011138916016
-0.049255371094,-0.101287841797,-0.019302368164,-0.006622314453,-0.007324218750,0.007415771484
-0.046569824219,-0.116409301758,-0.006149291992,-0.004653930664,-0.007369995117,0.007522583008
-0.045135498047,-0.108779907227,-0.004989624023,-0.003585815430,-0.006134033203,0.008895874023
-0.040222167969,-0.096725463867,-0.007980346680,-0.002731323242,-0.003753662109,0.008163452148
-0.039184570313,-0.096740722656,-0.008499145508,-0.002670288086,-0.002868652344,0.006881713867
-0.036300659180,-0.097320556641,-0.005325317383,-0.002044677734,-0.001556396484,0.004699707031
-0.035995483398,-0.095687866211,-0.001708984375,-0.001953125000,-0.000778198242,0.003982543945
-0.036254882813,-0.101455688477,-0.007843017578,-0.001739501953,0.002380371094,0.001464843750
-0.036911010742,-0.106201171875,-0.013687133789,-0.001174926758,0.003570556641,0.000488281250
-0.038421630859,-0.110198974609,-0.022491455078,-0.000900268555,0.004516601563,-0.000350952148
-0.039489746094,-0.109527587891,-0.029724121094,-0.000915527344,0.005126953125,-0.000381469727
-0.040786743164,-0.115280151367,-0.042022705078,-0.000213623047,0.004425048828,-0.001327514648
-0.040878295898,-0.118316650391,-0.038116455078,-0.000045776367,0.002792358398,-0.001495361328
-0.042404174805,-0.130508422852,-0.026153564453,-0.000778198242,0.001464843750,-0.001739501953
-0.043502807617,-0.133285522461,-0.028076171875,-0.001022338867,0.002273559570,-0.001052856445
-0.042663574219,-0.111831665039,-0.030075073242,-0.000625610352,0.002716064453,0.002044677734
-0.042053222656,-0.105377197266,-0.027435302734,-0.000534057617,0.002471923828,0.001724243164
-0.042648315430,-0.115844726563,-0.031555175781,-0.000732421875,0.003128051758,-0.000915527344

-0.079910278320,-0.178329467773,-0.059371948242,-0.010589599609,-0.031753540039,0.004486083984
-0.082794189453,-0.191024780273,-0.053283691406,-0.012374877930,-0.034393310547,0.007202148438
-0.086456298828,-0.193817138672,-0.027145385742,-0.014251708984,-0.037887573242,0.017318725586
-0.083450317383,-0.184051513672,-0.019149780273,-0.014297485352,-0.036758422852,0.023269653320
-0.078903198242,-0.151199340820,-0.006072998047,-0.013992309570,-0.033340454102,0.032577514648
-0.074203491211,-0.136260986328,0.004013061523,-0.013626098633,-0.032211303711,0.035278320313
-0.064376831055,-0.120666503906,0.020019531250,-0.013763427734,-0.027023315430,0.036468505859
-0.061264038086,-0.124603271484,0.019226074219,-0.013366699219,-0.022796630859,0.035232543945
-0.053314208984,-0.135787963867,0.006958007813,-0.010879516602,-0.015655517578,0.034820556641
-0.048385620117,-0.133026123047,-0.000869750977,-0.009857177734,-0.013305664063,0.036422729492
-0.042129516602,-0.114929199219,-0.012359619141,-0.008102416992,-0.010711669922,0.039230346680
-0.036437988281,-0.108474731445,-0.011230468750,-0.007156372070,-0.010864257813,0.038986206055
-0.026794433594,-0.099273681641,0.002883911133,-0.005996704102,-0.011398315430,0.036743164063
-0.021972656250,-0.098754882813,0.012390136719,-0.005233764648,-0.011001586914,0.035064697266
-0.011047363281,-0.104553222656,0.018463134766,-0.005889892578,-0.006896972656,0.031387329102
-0.007415771484,-0.106231689453,0.015594482422,-0.006072998047,-0.004089355469,0.030136108398
-0.000167846680,-0.112060546875,0.005844116211,-0.005020141602,-0.000030517578,0.028137207031
0.002212524414,-0.116653442383,0.003372192383,-0.005920410156,0.001403808594,0.027236938477
0.005554199219,-0.120513916016,0.003662109375,-0.006149291992,0.003143310547,0.026885986328
0.011901855469,-0.117004394531,0.009323120117,-0.005706787109,0.004165649414,0.027374267578
0.013992309570,-0.113967895508,0.006835937500,-0.004409790039,0.005645751953,0.023590087891
0.018035888672,-0.118438720703,-0.003524780273,-0.004379272461,0.008453369141,0.026031494141
0.019119262695,-0.126449584961,-0.003509521484,-0.004699707031,0.008560180664,0.025177001953
0.023605346680,-0.134719848633,0.004257202148,-0.003479003906,0.008544921875,0.026168823242
0.026138305664,-0.126770019531,0.002639770508,-0.002243041992,0.009887695313,0.028152465820
0.031234741211,-0.093414306641,0.003051757813,-0.001419067383,0.010955810547,0.031066894531
0.035339355469,-0.085632324219,0.006546020508,0.000595092773,0.010711669922,0.029617309570
0.042114257813,-0.084762573242,0.012313842773,-0.000228881836,0.012939453125,0.024597167969
0.042968750000,-0.087112426758,0.012817382813,-0.001266479492,0.014755249023,0.022521972656
0.044647216797,-0.091751098633,0.029266357422,-0.002883911133,0.016662597656,0.019561767578
0.042083740234,-0.095825195313,0.045608520508,-0.003479003906,0.017776489258,0.018295288086
0.040176391602,-0.104415893555,0.060699462891,-0.005111694336,0.026107788086,0.016403198242
0.041213989258,-0.117736816406,0.025314331055,-0.007293701172,0.035659790039,0.017349243164
0.042800903320,-0.108856201172,-0.016448974609,-0.009948730469,0.043212890625,0.019897460938
