ax,ay,az,gx,gy,gz
0.098403930664,-0.022766113281,0.188583374023,-0.006088256836,-0.032989501953,-0.010772705078
0.076324462891,0.013046264648,0.240417480469,0.002761840820,-0.028076171875,-0.010559082031
0.113388061523,-0.031585693359,0.211929321289,0.012924194336,-0.012451171875,-0.010818481445
0.114379882813,-0.014739990234,0.255599975586,0.008987426758,-0.009262084961,-0.005371093750
0.148330688477,0.024627685547,0.296020507813,-0.000579833984,0.014572143555,0.000122070313
0.165573120117,0.027450561523,0.336471557617,-0.010635375977,0.029190063477,-0.000030517578
0.141632080078,0.024093627930,0.376663208008,-0.042221069336,0.068710327148,-0.000106811523
0.148101806641,0.059402465820,0.314437866211,-0.049346923828,0.091247558594,0.004302978516
0.102661132813,0.003295898438,0.344894409180,-0.067184448242,0.118804931641,-0.009933471680
0.013305664063,-0.098297119141,0.304336547852,-0.080169677734,0.142074584961,-0.006637573242
-0.021575927734,-0.083206176758,0.244049072266,-0.080810546875,0.158554077148,-0.000228881836
-0.082092285156,-0.071655273438,0.117660522461,-0.074447631836,0.170593261719,-0.004104614258
-0.100479125977,-0.055374145508,0.036437988281,-0.062835693359,0.168441772461,-0.008193969727
-0.111038208008,-0.043197631836,-0.079910278320,-0.035385131836,0.147567749023,-0.017440795898
-0.099716186523,-0.051208496094,-0.097640991211,-0.029312133789,0.131683349609,-0.022705078125
-0.083648681641,-0.018127441406,-0.157073974609,-0.004592895508,0.098052978516,-0.026565551758
-0.082717895508,-0.016403198242,-0.202407836914,0.006576538086,0.081146240234,-0.029968261719
-0.050888061523,-0.000167846680,-0.220520019531,0.013946533203,0.046249389648,-0.025909423828
-0.032836914063,0.017837524414,-0.199447631836,0.012405395508,0.020553588867,-0.016830444336
-0.025131225586,0.021850585938,-0.202056884766,0.009368896484,0.007980346680,-0.016052246094
-0.027252197266,0.008819580078,-0.193161010742,0.007171630859,-0.003463745117,-0.016433715820
-0.010848999023,-0.014465332031,-0.184295654297,0.002227783203,-0.019470214844,-0.011505126953
-0.009719848633,-0.026718139648,-0.170379638672,-0.001190185547,-0.027236938477,-0.007675170898
-0.014511108398,-0.059127807617,-0.168258666992,-0.005661010742,-0.032440185547,0.001419067383
-0.016174316406,-0.063629150391,-0.172988891602,-0.007705688477,-0.033798217773,0.006881713867
-0.001663208008,-0.052703857422,-0.198318481445,-0.008377075195,-0.038986206055,0.016586303711
0.003326416016,-0.032836914063,-0.199432373047,-0.008087158203,-0.044860839844,0.019958496094
0.009124755859,-0.012008666992,-0.174346923828,-0.004165649414,-0.057785034180,0.021499633789
0.012420654297,-0.009536743164,-0.140609741211,-0.003295898438,-0.064529418945,0.020187377930
0.017196655273,0.012252807617,-0.079788208008,-0.001632690430,-0.073074340820,0.016021728516
0.006484985352,0.016616821289,-0.073730468750,-0.000305175781,-0.077087402344,0.012039184570
-0.007919311523,-0.006988525391,-0.037094116211,0.003631591797,-0.098861694336,0.007400512695
-0.008331298828,-0.008712768555,0.026733398438,0.007934570313,-0.114273071289,0.009826660156
0.007431030273,0.005203247070,0.105346679688,0.013763427734,-0.117492675781,0.017486572266
0.017608642578,0.012893676758,0.130859375000,0.017395019531,-0.112945556641,0.018463134766
0.019454956055,0.007705688477,0.122436523438,0.025802612305,-0.101547241211,0.016784667969
0.025878906250,-0.002685546875,0.140808105469,0.026611328125,-0.099731445313,0.016601562500
0.053359985352,-0.006179809570,0.216140747070,0.022674560547,-0.089462280273,0.018386840820
0.064483642578,0.003662109375,0.221740722656,0.025772094727,-0.078521728516,0.018722534180
0.067459106445,-0.014419555664,0.215011596680,0.034362792969,-0.058532714844,0.019744873047
0.077178955078,0.029190063477,0.190307617188,0.032501220703,-0.049728393555,0.017990112305
0.065292358398,0.022888183594,0.176361083984,0.031570434570,-0.042800903320,0.015594482422
0.098327636719,0.019104003906,0.128601074219,0.031097412109,-0.027236938477,0.012725830078
0.080215454102,0.023712158203,0.140182495117,0.020141601563,-0.025985717773,0.009567260742
0.070831298828,-0.008956909180,0.156707763672,0.009872436523,-0.021606445313,0.004959106445
0.064605712891,-0.013198852539,0.132522583008,0.011840820313,-0.016662597656,0.004989624023
0.058547973633,-0.023071289063,0.119323730469,0.012603759766,-0.018234252930,0.004516601563
0.061233520508,-0.037658691406,0.132247924805,0.013793945313,-0.022033691406,0.004211425781
0.069808959961,0.001739501953,0.142074584961,0.019271850586,-0.024093627930,0.007476806641
0.071228027344,0.011962890625,0.149917602539,0.015579223633,-0.022903442383,0.005554199219
0.072860717773,0.013397216797,0.155471801758,0.014648437500,-0.019363403320,-0.000335693359
0.078811645508,0.022857666016,0.156600952148,0.013412475586,-0.017379760742,-0.002258300781
0.078079223633,0.016525268555,0.159362792969,0.009933471680,-0.013580322266,-0.008071899414
0.073059082031,-0.001235961914,0.153732299805,0.007522583008,-0.010971069336,-0.009475708008
0.068969726563,-0.012008666992,0.149765014648,0.003005981445,-0.008560180664,-0.009826660156
0.066070556641,-0.024246215820,0.139068603516,-0.003204345703,-0.004196166992,-0.007888793945
0.069427490234,-0.024719238281,0.139694213867,-0.005950927734,-0.002716064453,-0.001480102539
0.073516845703,-0.019393920898,0.142776489258,-0.008438110352,-0.001434326172,-0.002090454102
0.072601318359,-0.018066406250,0.136322021484,-0.008605957031,-0.000030517578,-0.001052856445
0.071884155273,-0.004013061523,0.124481201172,-0.006820678711,0.001678466797,0.000976562500
0.072387695313,0.002883911133,0.124160766602,-0.005630493164,0.002151489258,0.001220703125
0.071731567383,0.006927490234,0.116149902344,-0.004562377930,0.003265380859,0.000305175781
0.069412231445,0.007080078125,0.119461059570,-0.004486083984,0.002670288086,-0.000381469727
0.065078735352,0.002197265625,0.113845825195,-0.005126953125,0.003509521484,-0.001022338867
0.063583374023,0.003585815430,0.115371704102,-0.005340576172,0.003997802734,-0.000610351563
0.058395385742,0.002792358398,0.104553222656,-0.006195068359,0.006011962891,0.000167846680
0.056961059570,0.002624511719,0.097366333008,-0.005920410156,0.006332397461,0.000518798828
0.057662963867,0.007110595703,0.099014282227,-0.003768920898,0.003463745117,0.000869750977
0.055435180664,0.003601074219,0.102310180664,-0.002044677734,0.002365112305,0.000473022461
0.054367065430,0.001312255859,0.098663330078,0.003479003906,0.001144409180,0.000473022461
0.056381225586,0.003890991211,0.105422973633,0.001007080078,-0.000213623047,0.000518798828
0.056625366211,0.005676269531,0.108886718750,0.001434326172,-0.000854492188,0.000305175781
0.057632446289,0.002380371094,0.110794067383,0.002441406250,-0.000686645508,-0.000473022461
0.057891845703,0.000595092773,0.110885620117,0.002304077148,-0.000534057617,-0.000656127930
0.057113647461,-0.003158569336,0.104095458984,0.000396728516,-0.000381469727,-0.000274658203
0.058517456055,-0.000289916992,0.105331420898,-0.000946044922,-0.000595092773,0.000305175781
0.058898925781,0.006347656250,0.102142333984,-0.001678466797,-0.001480102539,-0.000350952148
0.057800292969,0.002639770508,0.104141235352,-0.001602172852,-0.002227783203,-0.001083374023
0.058609008789,-0.002166748047,0.109893798828,-0.000747680664,-0.002197265625,-0.001281738281
0.059387207031,0.000244140625,0.111953735352,-0.000610351563,-0.001983642578,-0.001113891602
0.059814453125,0.000396728516,0.112289428711,0.000183105469,-0.001388549805,-0.001296997070
0.059463500977,0.000213623047,0.111129760742,0.000701904297,-0.001251220703,-0.001251220703
0.058181762695,0.000885009766,0.106140136719,0.000366210937,-0.001647949219,-0.001174926758
0.057449340820,0.000335693359,0.111251831055,-0.000137329102,-0.002395629883,-0.001098632813
0.056411743164,0.003067016602,0.109619140625,-0.000167846680,-0.002151489258,-0.001327514648
0.054779052734,-0.000488281250,0.106628417969,0.000076293945,-0.001617431641,-0.001174926758
0.054077148438,0.001495361328,0.101211547852,0.000579833984,-0.001556396484,-0.001068115234
0.054519653320,-0.003494262695,0.110733032227,0.000793457031,-0.003204345703,-0.001159667969
0.054183959961,-0.004089355469,0.112335205078,0.001129150391,-0.003021240234,-0.000976562500
0.054534912109,-0.003158569336,0.113876342773,0.001602172852,-0.001739501953,-0.000518798828
0.054962158203,-0.003112792969,0.114517211914,0.001861572266,-0.001174926758,-0.000396728516
0.054748535156,-0.000442504883,0.111618041992,0.003204345703,-0.000823974609,-0.000274658203
0.055007934570,-0.001556396484,0.113662719727,0.003753662109,-0.000839233398,-0.000366210937
0.052505493164,-0.001800537109,0.106430053711,0.003890991211,0.000244140625,-0.000167846680
0.053436279297,-0.003051757813,0.108001708984,0.003250122070,0.000350952148,0.000061035156
0.056167602539,-0.001525878906,0.112594604492,0.001708984375,0.000869750977,0.000732421875
0.055541992188,-0.000747680664,0.111862182617,0.001144409180,0.001373291016,0.000930786133
0.053741455078,0.001770019531,0.103744506836,0.000808715820,0.001388549805,0.000640869141
0.056701660156,0.001235961914,0.106323242188,0.000350952148,-0.000045776367,0.000152587891
0.056533813477,-0.001403808594,0.113754272461,-0.000015258789,-0.000778198242,-0.000015258789
0.054199218750,-0.003860473633,0.111694335938,0.000167846680,0.000289916992,-0.000015258789
0.054595947266,-0.002258300781,0.108520507813,0.000381469727,0.000534057617,0.000152587891
0.055877685547,0.000335693359,0.112197875977,0.000595092773,-0.000534057617,-0.000152587891
0.055450439453,-0.002258300781,0.115097045898,0.000671386719,-0.000595092773,-0.000503540039

0.053558349609,-0.012176513672,0.237701416016,0.008255004883,-0.009552001953,0.008621215820
0.059951782227,-0.000076293945,0.258132934570,0.006820678711,-0.005218505859,0.009780883789
0.083328247070,0.004287719727,0.347839355469,-0.010131835938,0.009414672852,0.009704589844
0.087234497070,-0.010848999023,0.384704589844,-0.028976440430,0.027160644531,0.010375976563
0.080627441406,0.027252197266,0.335815429688,-0.056961059570,0.071060180664,0.012512207031
0.080200195313,0.051498413086,0.337097167969,-0.065643310547,0.086944580078,0.007843017578
0.055358886719,0.060226440430,0.327438354492,-0.060562133789,0.113052368164,-0.011764526367
0.022201538086,0.038375854492,0.330795288086,-0.054168701172,0.123870849609,-0.022766113281
-0.014907836914,0.005874633789,0.305130004883,-0.044906616211,0.152938842773,-0.033645629883
-0.074447631836,-0.033843994141,0.206344604492,-0.041671752930,0.165145874023,-0.034454345703
-0.087799072266,-0.058181762695,0.156158447266,-0.041290283203,0.176559448242,-0.031112670898
-0.113159179688,-0.057128906250,-0.007171630859,-0.038085937500,0.178588867188,-0.028274536133
-0.084335327148,-0.030899047852,-0.038894653320,-0.035461425781,0.168594360352,-0.034317016602
-0.060241699219,0.006927490234,-0.111740112305,-0.016876220703,0.132446289063,-0.036300659180
-0.057968139648,0.021072387695,-0.139266967773,-0.005432128906,0.114624023438,-0.036590576172
-0.059417724609,-0.005386352539,-0.182983398438,0.007827758789,0.079055786133,-0.036834716797
-0.048019409180,-0.008880615234,-0.192260742188,0.012542724609,0.045059204102,-0.029830932617
-0.023513793945,0.004852294922,-0.173416137695,0.014099121094,0.029769897461,-0.025543212891
-0.013473510742,0.005752563477,-0.151779174805,0.012786865234,0.017562866211,-0.022018432617
-0.021820068359,-0.019073486328,-0.150451660156,0.012939453125,0.004776000977,-0.017791748047
-0.022613525391,-0.030899047852,-0.152786254883,0.010986328125,-0.000442504883,-0.014480590820
-0.015625000000,-0.036743164063,-0.157897949219,0.007934570313,-0.010955810547,-0.003845214844
-0.007797241211,-0.030609130859,-0.151763916016,0.005310058594,-0.017089843750,0.001663208008
0.002670288086,-0.008834838867,-0.155029296875,0.002593994141,-0.027221679688,0.010711669922
0.006423950195,-0.005950927734,-0.156402587891,0.000793457031,-0.031158447266,0.012680053711
0.012725830078,0.004867553711,-0.168457031250,-0.002243041992,-0.037933349609,0.014236450195
0.015182495117,0.008789062500,-0.162490844727,-0.003814697266,-0.041885375977,0.013763427734
0.026046752930,0.016174316406,-0.122299194336,-0.006515502930,-0.050430297852,0.011535644531
0.011718750000,0.007644653320,-0.128158569336,-0.006286621094,-0.051422119141,0.008972167969
-0.006835937500,-0.019119262695,-0.108673095703,-0.006729125977,-0.058227539063,0.005325317383
-0.006942749023,-0.021270751953,-0.084289550781,-0.006683349609,-0.062576293945,0.005508422852
-0.012283325195,-0.063003540039,-0.094314575195,-0.006286621094,-0.084793090820,0.003494262695
-0.024673461914,-0.040054321289,-0.023437500000,-0.002914428711,-0.108322143555,0.011032104492
-0.012832641602,0.005676269531,0.028396606445,0.001785278320,-0.113265991211,0.020980834961
-0.004806518555,0.024826049805,0.045410156250,0.005645751953,-0.115646362305,0.020843505859
-0.002471923828,0.050415039063,0.097747802734,0.012939453125,-0.121383666992,0.017181396484
-0.003112792969,0.056060791016,0.123413085938,0.016769409180,-0.122131347656,0.013610839844
-0.004501342773,0.039321899414,0.138244628906,0.025222778320,-0.113632202148,0.004226684570
-0.006622314453,0.025421142578,0.159896850586,0.025558471680,-0.109771728516,0.001251220703
-0.006393432617,-0.010116577148,0.187561035156,0.024246215820,-0.097732543945,-0.001586914063
-0.011184692383,-0.026535034180,0.186141967773,0.023223876953,-0.090393066406,-0.001281738281
-0.016189575195,-0.041336059570,0.216857910156,0.021789550781,-0.080108642578,0.002899169922
-0.006713867188,-0.034423828125,0.214218139648,0.022735595703,-0.074462890625,0.005722045898
-0.002944946289,-0.020202636719,0.210769653320,0.025970458984,-0.067718505859,0.007705688477
-0.005676269531,-0.030868530273,0.224136352539,0.026733398438,-0.065017700195,0.006057739258
-0.006774902344,-0.031768798828,0.228363037109,0.029479980469,-0.054626464844,0.009918212891
0.002105712891,-0.017166137695,0.230651855469,0.025039672852,-0.049102783203,0.007827758789
0.007858276367,-0.029708862305,0.234909057617,0.020690917969,-0.043792724609,0.006332397461
0.012512207031,-0.040100097656,0.218353271484,0.018951416016,-0.032516479492,0.007629394531
0.007553100586,-0.015640258789,0.193313598633,0.020690917969,-0.027511596680,0.008773803711
0.005859375000,-0.027984619141,0.164199829102,0.012054443359,-0.022598266602,0.003234863281
0.003051757813,-0.036712646484,0.166488647461,0.009735107422,-0.022109985352,0.001724243164
0.002593994141,-0.041870117188,0.168548583984,0.007232666016,-0.019378662109,0.001327514648
0.002059936523,-0.042327880859,0.170516967773,0.006301879883,-0.017456054688,0.001327514648
0.012313842773,-0.039123535156,0.176269531250,0.002670288086,-0.012252807617,0.002960205078
0.014419555664,-0.028854370117,0.167678833008,0.000915527344,-0.009582519531,0.004150390625
0.011566162109,-0.014801025391,0.134262084961,-0.001815795898,-0.007171630859,0.004302978516
0.014709472656,-0.016906738281,0.135559082031,-0.004211425781,-0.007431030273,0.004364013672
0.018966674805,-0.017242431641,0.144226074219,-0.009323120117,-0.004440307617,0.005615234375
0.016815185547,-0.015670776367,0.140121459961,-0.010833740234,-0.001388549805,0.006088256836
0.015472412109,-0.016250610352,0.139251708984,-0.011703491211,0.003509521484,0.006851196289
0.015289306641,-0.009872436523,0.134613037109,-0.011352539063,0.004714965820,0.007049560547
0.018737792969,-0.005264282227,0.141906738281,-0.010757446289,0.003616333008,0.006713867188
0.020202636719,0.001663208008,0.141387939453,-0.007614135742,0.002227783203,0.004592895508
0.019973754883,0.005706787109,0.135955810547,-0.006072998047,0.001831054688,0.003204345703
0.016738891602,0.001739501953,0.131790161133,-0.003768920898,-0.000762939453,0.000122070313
0.016204833984,-0.007354736328,0.141372680664,-0.003448486328,-0.002075195313,-0.000885009766
0.016326904297,-0.016586303711,0.155166625977,-0.002822875977,-0.002395629883,-0.000976562500
0.014068603516,-0.016403198242,0.151275634766,-0.002090454102,-0.001327514648,-0.000610351563
0.012527465820,-0.013046264648,0.140243530273,-0.001434326172,-0.000289916992,0.000442504883
0.013031005859,-0.011154174805,0.142120361328,-0.001617431641,-0.000320434570,0.000762939453
0.010986328125,-0.006729125977,0.134353637695,-0.000885009766,0.000808715820,0.000305175781
0.009765625000,-0.008041381836,0.131164550781,0.000259399414,0.000930786133,-0.000473022461
0.007980346680,-0.011825561523,0.129882812500,0.001007080078,0.001159667969,-0.001068115234
0.007080078125,-0.013153076172,0.129058837891,0.000900268555,0.001632690430,-0.000991821289
0.005477905273,-0.011154174805,0.126632690430,0.000823974609,0.002639770508,-0.000991821289
0.001037597656,-0.012435913086,0.116073608398,0.000427246094,0.003021240234,-0.001098632813
0.000610351563,-0.013946533203,0.110839843750,-0.000305175781,0.002761840820,-0.001052856445
0.001068115234,-0.011627197266,0.116012573242,-0.000701904297,-0.000198364258,-0.001113891602
0.000228881836,-0.012954711914,0.118255615234,-0.000473022461,-0.000701904297,-0.001388549805
-0.002807617188,-0.014343261719,0.119232177734,0.000122070313,-0.000534057617,-0.001525878906
-0.002944946289,-0.014160156250,0.121429443359,0.000061035156,-0.000488281250,-0.001312255859
-0.000747680664,-0.009735107422,0.129592895508,-0.000625610352,0.000091552734,-0.001098632813
-0.001373291016,-0.009674072266,0.127868652344,-0.000732421875,0.000915527344,-0.001251220703
-0.003799438477,-0.009719848633,0.115982055664,-0.001190185547,0.001663208008,-0.001449584961
-0.002258300781,-0.012023925781,0.119125366211,-0.002029418945,0.000457763672,-0.001373291016
-0.000946044922,-0.011154174805,0.120330810547,-0.002044677734,-0.000442504883,-0.001083374023
0.000366210937,-0.012802124023,0.122573852539,-0.001419067383,-0.000686645508,-0.001113891602
0.000701904297,-0.012619018555,0.123504638672,-0.000305175781,-0.000503540039,-0.000808715820
0.001174926758,-0.011474609375,0.124008178711,0.000274658203,-0.000427246094,-0.000549316406
0.003067016602,-0.009841918945,0.123855590820,0.000869750977,-0.000152587891,-0.000244140625
0.003555297852,-0.008575439453,0.123001098633,0.001296997070,-0.000183105469,-0.000198364258
0.002395629883,-0.011566162109,0.120086669922,0.001556396484,-0.000396728516,-0.000076293945
0.002975463867,-0.011016845703,0.120101928711,0.001266479492,-0.000381469727,0.000381469727
0.005523681641,-0.008575439453,0.124374389648,0.000625610352,-0.000167846680,0.000885009766
0.004440307617,-0.009719848633,0.123580932617,0.000625610352,0.000228881836,0.000823974609
0.003829956055,-0.011047363281,0.120834350586,0.001052856445,0.000289916992,0.000823974609
0.004180908203,-0.013412475586,0.126098632813,0.001083374023,-0.000198364258,0.000823974609
0.004150390625,-0.013442993164,0.125686645508,0.001419067383,-0.000228881836,0.000946044922
0.003204345703,-0.012542724609,0.124404907227,0.002273559570,-0.000442504883,0.000915527344
0.003829956055,-0.012191772461,0.125000000000,0.002410888672,-0.000747680664,0.000854492188
0.002670288086,-0.012130737305,0.125320434570,0.002441406250,-0.001296997070,0.000289916992
0.001663208008,-0.014343261719,0.126632690430,0.002380371094,-0.001480102539,0.000045776367
0.001007080078,-0.016082763672,0.126190185547,0.001663208008,-0.000961303711,0.000320434570

-0.063079833984,-0.037994384766,0.272323608398,0.030593872070,-0.055969238281,-0.004821777344
-0.011917114258,-0.064224243164,0.214065551758,0.048919677734,-0.048965454102,-0.002807617188
-0.018569946289,-0.040954589844,0.181335449219,0.047241210938,-0.046722412109,0.000061035156
-0.012084960938,-0.042633056641,0.208450317383,0.038696289063,-0.050704956055,-0.001693725586
-0.005325317383,-0.039550781250,0.239547729492,0.026412963867,-0.042037963867,-0.003280639648
0.000259399414,-0.033370971680,0.230072021484,0.024368286133,-0.034408569336,-0.003677368164
-0.014175415039,-0.024246215820,0.191650390625,0.033203125000,-0.023803710938,-0.003707885742
-0.015319824219,-0.015640258789,0.201202392578,0.027679443359,-0.022140502930,-0.005294799805
-0.019515991211,-0.073730468750,0.187606811523,0.002975463867,-0.016052246094,-0.011154174805
-0.015304565430,-0.075485229492,0.194778442383,-0.001937866211,-0.015274047852,-0.008605957031
-0.006240844727,-0.069610595703,0.202880859375,-0.004714965820,-0.011856079102,-0.004333496094
-0.001937866211,-0.066909790039,0.205032348633,-0.005371093750,-0.009109497070,-0.002471923828
0.007431030273,-0.053222656250,0.204513549805,-0.006988525391,-0.001220703125,0.001785278320
0.010574340820,-0.043502807617,0.198562622070,-0.007553100586,0.003692626953,0.003662109375
0.012344360352,-0.033386230469,0.186660766602,-0.007873535156,0.012161254883,0.005172729492
0.010406494141,-0.023712158203,0.162353515625,-0.008178710938,0.014297485352,0.005004882813
0.015609741211,-0.021530151367,0.147979736328,-0.009643554688,0.015579223633,0.004440307617
0.020355224609,-0.009063720703,0.141235351563,-0.008483886719,0.012969970703,0.003204345703
0.018554687500,-0.008514404297,0.132598876953,-0.005966186523,0.011718750000,0.001388549805
0.012725830078,-0.017242431641,0.122619628906,-0.000518798828,0.008056640625,-0.001632690430
0.012161254883,-0.017486572266,0.119659423828,0.001586914063,0.006698608398,-0.002227783203
0.011260986328,-0.015945434570,0.119491577148,0.004165649414,0.004943847656,-0.002716064453
0.011032104492,-0.016128540039,0.119949340820,0.004745483398,0.004913330078,-0.002868652344
0.010955810547,-0.015914916992,0.118209838867,0.005172729492,0.005096435547,-0.002822875977
0.007354736328,-0.017974853516,0.119720458984,0.004898071289,0.004684448242,-0.002731323242
0.008346557617,-0.021575927734,0.124832153320,0.002517700195,0.004745483398,-0.001480102539
0.008285522461,-0.022842407227,0.122039794922,0.002120971680,0.005462646484,-0.000625610352
0.004501342773,-0.022491455078,0.117614746094,0.000854492188,0.006011962891,0.001052856445
0.001464843750,-0.020416259766,0.118164062500,0.000701904297,0.005722045898,0.001724243164
0.005203247070,-0.021896362305,0.119842529297,0.000396728516,0.005340576172,0.002548217773
0.008514404297,-0.012695312500,0.115798950195,0.000228881836,0.005371093750,0.002822875977
0.008483886719,-0.007980346680,0.117858886719,0.000411987305,0.004180908203,0.001602172852
0.007965087891,-0.012680053711,0.121871948242,0.000534057617,0.001815795898,0.001007080078
0.007568359375,-0.014892578125,0.123611450195,0.000473022461,0.001403808594,0.000747680664
0.005752563477,-0.013275146484,0.118911743164,0.000137329102,0.001708984375,0.000854492188
0.006347656250,-0.012786865234,0.119613647461,0.000076293945,0.001266479492,0.000595092773
0.008743286133,-0.015640258789,0.125228881836,0.000106811523,0.000244140625,-0.000045776367
0.009780883789,-0.015121459961,0.127853393555,0.000152587891,0.000198364258,-0.000198364258
0.010086059570,-0.015228271484,0.126480102539,0.000183105469,0.000762939453,-0.000595092773
0.010131835938,-0.015472412109,0.124557495117,0.000289916992,0.001098632813,-0.000778198242
0.009994506836,-0.015136718750,0.123687744141,0.000091552734,0.001296997070,-0.000854492188
0.010650634766,-0.013168334961,0.122970581055,-0.000122070313,0.001480102539,-0.000946044922
0.010467529297,-0.012344360352,0.119659423828,-0.000213623047,0.001663208008,-0.001403808594
0.009780883789,-0.015396118164,0.118515014648,-0.000137329102,0.001525878906,-0.001724243164
0.009368896484,-0.015396118164,0.115707397461,-0.000076293945,0.001312255859,-0.002319335938
0.008590698242,-0.016571044922,0.114654541016,0.000839233398,0.000823974609,-0.002761840820
0.008193969727,-0.018981933594,0.115737915039,0.001647949219,0.000350952148,-0.003219604492
0.008270263672,-0.021926879883,0.115112304688,0.002731323242,-0.000396728516,-0.003738403320
0.007324218750,-0.023529052734,0.116073608398,0.003051757813,-0.000900268555,-0.003936767578
0.007110595703,-0.029190063477,0.122589111328,0.003890991211,-0.001785278320,-0.003921508789
0.007705688477,-0.030822753906,0.124588012695,0.004089355469,-0.001541137695,-0.003433227539
0.007965087891,-0.028228759766,0.122161865234,0.003784179688,-0.000793457031,-0.002365112305
0.007507324219,-0.030044555664,0.122650146484,0.003372192383,-0.000701904297,-0.001937866211
0.008010864258,-0.029205322266,0.124023437500,0.002441406250,-0.000625610352,-0.000778198242
0.007766723633,-0.027359008789,0.123428344727,0.002197265625,-0.000274658203,-0.000244140625
0.008834838867,-0.021682739258,0.120483398438,0.002319335938,0.000213623047,0.000137329102
0.010055541992,-0.021713256836,0.123413085938,0.002105712891,-0.000045776367,-0.000137329102
0.010681152344,-0.022247314453,0.124771118164,0.002441406250,0.000137329102,-0.000656127930
0.009979248047,-0.022964477539,0.123886108398,0.002578735352,0.000259399414,-0.000885009766
0.010116577148,-0.023864746094,0.123092651367,0.002716064453,0.000152587891,-0.000976562500
0.009429931641,-0.025436401367,0.124725341797,0.002380371094,0.000198364258,-0.000823974609
0.009201049805,-0.024703979492,0.122573852539,0.002212524414,0.000473022461,-0.000701904297
0.009002685547,-0.025512695313,0.122863769531,0.001342773438,0.000411987305,-0.000656127930
0.009048461914,-0.026229858398,0.123397827148,0.001037597656,0.000518798828,-0.000579833984
0.008438110352,-0.026199340820,0.122070312500,0.000610351563,0.001052856445,-0.000335693359
0.008407592773,-0.026779174805,0.121551513672,0.000457763672,0.001159667969,-0.000228881836
0.008331298828,-0.021896362305,0.117538452148,0.000427246094,0.001388549805,-0.000061035156
0.008346557617,-0.022003173828,0.116683959961,0.000320434570,0.001159667969,-0.000350952148
0.007888793945,-0.024368286133,0.119293212891,0.000167846680,0.000473022461,-0.000793457031
0.007614135742,-0.025024414063,0.118881225586,0.000259399414,0.000503540039,-0.000854492188
0.006927490234,-0.026107788086,0.118606567383,0.000488281250,0.000473022461,-0.000839233398
0.006347656250,-0.026382446289,0.118072509766,0.000396728516,0.000396728516,-0.000686645508
0.006835937500,-0.026184082031,0.119277954102,0.000152587891,0.000335693359,-0.000396728516
0.006927490234,-0.025558471680,0.118896484375,0.000091552734,0.000411987305,-0.000289916992
0.006546020508,-0.026214599609,0.119552612305,-0.000122070313,0.000488281250,-0.000167846680
0.007080078125,-0.025100708008,0.119903564453,-0.000381469727,0.000549316406,-0.000076293945
0.006607055664,-0.026229858398,0.120941162109,-0.000518798828,0.000595092773,-0.000045776367
0.006668090820,-0.025848388672,0.120162963867,-0.000122070313,0.000549316406,0.000030517578
0.006286621094,-0.026321411133,0.120483398438,0.000213623047,0.000366210937,-0.000030517578
0.006484985352,-0.025329589844,0.119079589844,0.000671386719,0.000152587891,0.000030517578
0.006561279297,-0.024551391602,0.118652343750,0.000747680664,-0.000030517578,-0.000030517578
0.007141113281,-0.025085449219,0.120483398438,0.000808715820,-0.000213623047,-0.000030517578
0.007080078125,-0.025131225586,0.120880126953,0.000839233398,-0.000122070313,0.000030517578
0.008102416992,-0.024337768555,0.121734619141,0.000671386719,0.000045776367,0.000030517578
0.008270263672,-0.025695800781,0.123672485352,0.000579833984,0.000015258789,-0.000030517578
0.008270263672,-0.022827148438,0.119949340820,0.000656127930,0.000503540039,0.000045776367
0.007934570313,-0.025131225586,0.122329711914,0.000595092773,0.000411987305,-0.000198364258
0.008499145508,-0.025253295898,0.122772216797,0.000549316406,0.000793457031,-0.000076293945
0.006729125977,-0.025054931641,0.117797851563,0.000503540039,0.001037597656,-0.000015258789
0.006042480469,-0.025680541992,0.116195678711,0.000488281250,0.000869750977,0.000015258789
0.007110595703,-0.025344848633,0.120452880859,0.000564575195,0.000015258789,-0.000091552734
0.007614135742,-0.026184082031,0.121902465820,0.000640869141,-0.000015258789,-0.000137329102
0.006851196289,-0.027297973633,0.121795654297,0.000778198242,0.000091552734,-0.000015258789
0.007476806641,-0.026794433594,0.121719360352,0.000610351563,0.000045776367,0.000137329102
0.007644653320,-0.026977539063,0.123199462891,0.000656127930,-0.000396728516,0.000274658203
0.007766723633,-0.026550292969,0.122283935547,0.000747680664,-0.000488281250,0.000289916992
0.008117675781,-0.026718139648,0.126022338867,0.000991821289,-0.001235961914,0.000167846680
0.007995605469,-0.025924682617,0.121765136719,0.001144409180,-0.000823974609,0.000335693359
0.008087158203,-0.024673461914,0.123657226563,0.000854492188,-0.000564575195,0.000671386719
0.009246826172,-0.023803710938,0.123962402344,0.000457763672,-0.000259399414,0.000793457031
0.009094238281,-0.020248413086,0.119674682617,0.000686645508,0.000091552734,0.000595092773
0.008422851563,-0.022415161133,0.120223999023,0.000595092773,-0.000061035156,0.000350952148
0.007827758789,-0.023056030273,0.120330810547,0.000595092773,-0.000045776367,0.000274658203
0.007385253906,-0.022445678711,0.119262695313,0.000549316406,0.000091552734,0.000122070313

-0.021820068359,0.029159545898,0.253845214844,0.044662475586,-0.077865600586,0.003829956055
-0.029296875000,0.032882690430,0.249252319336,0.044113159180,-0.072448730469,-0.004257202148
-0.039901733398,-0.025650024414,0.236709594727,0.017089843750,-0.061691284180,-0.016235351563
-0.042037963867,-0.041976928711,0.240188598633,0.012847900391,-0.057434082031,-0.016098022461
-0.051498413086,-0.072692871094,0.222671508789,0.008483886719,-0.047470092773,-0.012893676758
-0.052459716797,-0.087142944336,0.221893310547,0.008453369141,-0.045028686523,-0.010650634766
-0.044723510742,-0.082641601563,0.238159179688,0.002899169922,-0.040817260742,-0.004791259766
-0.038528442383,-0.077148437500,0.239334106445,0.001098632813,-0.037612915039,-0.002746582031
-0.024368286133,-0.054550170898,0.254837036133,-0.004409790039,-0.031005859375,-0.000442504883
-0.023361206055,-0.047409057617,0.250396728516,-0.005691528320,-0.026138305664,-0.000228881836
-0.022216796875,-0.044982910156,0.248535156250,-0.006408691406,-0.017303466797,-0.000579833984
-0.014999389648,-0.050201416016,0.247070312500,-0.006149291992,-0.012542724609,-0.000549316406
-0.010101318359,-0.057632446289,0.231536865234,-0.006195068359,-0.002258300781,0.001556396484
-0.013046264648,-0.056900024414,0.218383789063,-0.006134033203,0.001434326172,0.003189086914
-0.005599975586,-0.058731079102,0.197967529297,-0.007003784180,0.005432128906,0.006759643555
-0.000442504883,-0.041717529297,0.184967041016,-0.006439208984,0.006805419922,0.007949829102
-0.000259399414,-0.035247802734,0.173171997070,-0.005355834961,0.007186889648,0.009140014648
0.002685546875,-0.022079467773,0.158111572266,-0.004302978516,0.006591796875,0.009033203125
0.006301879883,-0.011306762695,0.155654907227,-0.003311157227,0.006195068359,0.007461547852
0.010604858398,0.000518798828,0.146469116211,-0.000701904297,0.006744384766,0.005630493164
0.009765625000,0.000015258789,0.141021728516,-0.000274658203,0.007339477539,0.003845214844
0.008163452148,-0.009582519531,0.131362915039,-0.000579833984,0.008255004883,0.001068115234
0.005966186523,-0.004928588867,0.130004882813,-0.001190185547,0.008300781250,0.001159667969
0.000732421875,-0.009902954102,0.117706298828,-0.000930786133,0.007141113281,0.000946044922
0.000610351563,-0.010040283203,0.118591308594,-0.000991821289,0.005935668945,0.001022338867
0.000549316406,-0.005187988281,0.120529174805,-0.000213623047,0.005203247070,0.001007080078
-0.000259399414,-0.004470825195,0.120239257813,0.000549316406,0.005371093750,0.000732421875
-0.004547119141,-0.004501342773,0.117507934570,0.001556396484,0.006240844727,0.000335693359
-0.006332397461,-0.004669189453,0.115066528320,0.001998901367,0.006683349609,0.000259399414
-0.007080078125,-0.005172729492,0.114349365234,0.001724243164,0.006927490234,0.000106811523
-0.008560180664,-0.006088256836,0.110595703125,0.001052856445,0.006591796875,0.000259399414
-0.008438110352,-0.006469726563,0.110931396484,0.000381469727,0.005615234375,0.000259399414
-0.008972167969,-0.010009765625,0.117141723633,-0.001052856445,0.003921508789,0.000000000000
-0.010131835938,-0.013320922852,0.116928100586,-0.001617431641,0.004013061523,0.000000000000
-0.012222290039,-0.013397216797,0.111221313477,-0.001556396484,0.004211425781,0.000335693359
-0.013992309570,-0.013137817383,0.107376098633,-0.001266479492,0.003723144531,0.000289916992
-0.013412475586,-0.014541625977,0.110229492188,-0.000152587891,0.001480102539,0.000106811523
-0.012588500977,-0.013916015625,0.112930297852,0.000457763672,0.000564575195,0.000183105469
-0.008850097656,-0.011230468750,0.120193481445,0.001312255859,0.000000000000,0.000213623047
-0.008193969727,-0.010040283203,0.121871948242,0.001419067383,0.000106811523,0.000122070313
-0.007064819336,-0.009231567383,0.123352050781,0.001083374023,0.001068115234,-0.000106811523
-0.007675170898,-0.009582519531,0.120269775391,0.001083374023,0.001464843750,-0.000259399414
-0.007812500000,-0.010665893555,0.124694824219,0.000946044922,0.001083374023,-0.000366210937
-0.006347656250,-0.012191772461,0.123306274414,0.000946044922,0.001235961914,-0.000244140625
-0.005065917969,-0.010177612305,0.123733520508,0.001068115234,0.001739501953,-0.000167846680
-0.003890991211,-0.008636474609,0.123001098633,0.001876831055,0.001968383789,-0.000366210937
-0.004150390625,-0.007949829102,0.118942260742,0.002243041992,0.002197265625,-0.000564575195
-0.004318237305,-0.008575439453,0.120422363281,0.002746582031,0.001358032227,-0.001022338867
-0.004119873047,-0.006027221680,0.118118286133,0.003112792969,0.001266479492,-0.001174926758
-0.005294799805,-0.009536743164,0.120330810547,0.003631591797,0.000625610352,-0.002120971680
-0.005691528320,-0.011978149414,0.121795654297,0.003631591797,0.000473022461,-0.002197265625
-0.005538940430,-0.015716552734,0.125122070313,0.002990722656,0.000732421875,-0.001617431641
-0.005187988281,-0.014724731445,0.124267578125,0.002456665039,0.001129150391,-0.001144409180
-0.004135131836,-0.013046264648,0.126571655273,0.001007080078,0.000946044922,-0.000610351563
-0.003585815430,-0.013900756836,0.128326416016,0.000518798828,0.000961303711,-0.000427246094
-0.003814697266,-0.013031005859,0.126235961914,-0.000244140625,0.001632690430,0.000137329102
-0.003799438477,-0.012039184570,0.124649047852,-0.000427246094,0.001770019531,0.000335693359
-0.002624511719,-0.010940551758,0.125335693359,-0.000961303711,0.001571655273,0.000610351563
-0.001876831055,-0.009719848633,0.125061035156,-0.000991821289,0.001541137695,0.000671386719
-0.001373291016,-0.009918212891,0.125030517578,-0.000793457031,0.001251220703,0.000289916992
-0.001373291016,-0.011749267578,0.124191284180,-0.000564575195,0.001220703125,0.000061035156
-0.000930786133,-0.014526367188,0.125106811523,-0.000732421875,0.000625610352,0.000198364258
-0.000457763672,-0.015426635742,0.128372192383,-0.000839233398,0.000274658203,0.000442504883
-0.000198364258,-0.015151977539,0.126449584961,-0.000396728516,0.001007080078,0.000976562500
-0.000671386719,-0.013656616211,0.124679565430,-0.000717163086,0.001251220703,0.001235961914
-0.000793457031,-0.012573242188,0.126281738281,-0.001113891602,0.001098632813,0.001708984375
-0.001083374023,-0.010818481445,0.125244140625,-0.001144409180,0.001495361328,0.001907348633
-0.001083374023,-0.008544921875,0.122055053711,-0.001266479492,0.001663208008,0.001892089844
-0.001190185547,-0.008514404297,0.124755859375,-0.001312255859,0.001525878906,0.001708984375
-0.000869750977,-0.007934570313,0.125885009766,-0.001159667969,0.001495361328,0.001205444336
-0.002105712891,-0.010391235352,0.124877929688,-0.000869750977,0.001678466797,0.000976562500
-0.002609252930,-0.010711669922,0.123245239258,-0.000625610352,0.001678466797,0.000915527344
-0.003433227539,-0.009338378906,0.120590209961,-0.000457763672,0.001480102539,0.000961303711
-0.004104614258,-0.010345458984,0.119918823242,-0.000152587891,0.001403808594,0.000778198242
-0.005126953125,-0.010574340820,0.118820190430,0.000106811523,0.001251220703,0.000564575195
-0.005569458008,-0.010421752930,0.118667602539,0.000091552734,0.001174926758,0.000595092773
-0.004486083984,-0.008789062500,0.120254516602,-0.000289916992,0.001068115234,0.000701904297
-0.004013061523,-0.009307861328,0.121582031250,-0.000335693359,0.000961303711,0.000564575195
-0.003921508789,-0.009246826172,0.121582031250,0.000198364258,0.000915527344,0.000030517578
-0.004043579102,-0.009674072266,0.120864868164,0.000503540039,0.000854492188,-0.000244140625
-0.003997802734,-0.011642456055,0.123336791992,0.000656127930,0.000793457031,-0.000473022461
-0.003646850586,-0.011383056641,0.122268676758,0.000625610352,0.001022338867,-0.000427246094
-0.004196166992,-0.012878417969,0.121444702148,0.000762939453,0.001068115234,-0.000457763672
-0.004241943359,-0.013381958008,0.120605468750,0.000732421875,0.001159667969,-0.000396728516
-0.004501342773,-0.012817382813,0.117324829102,0.000976562500,0.001098632813,-0.000381469727
-0.003768920898,-0.014068603516,0.119003295898,0.000976562500,0.000778198242,-0.000396728516
-0.003646850586,-0.013046264648,0.117156982422,0.000915527344,0.000564575195,-0.000289916992
-0.003173828125,-0.013717651367,0.117889404297,0.000991821289,0.000259399414,-0.000335693359
-0.002365112305,-0.013229370117,0.119003295898,0.000930786133,-0.000045776367,-0.000289916992
-0.001495361328,-0.013824462891,0.120651245117,0.000823974609,0.000030517578,-0.000244140625
-0.001296997070,-0.013824462891,0.120971679688,0.000717163086,0.000076293945,-0.000183105469
-0.000320434570,-0.013076782227,0.121627807617,0.000549316406,0.000183105469,-0.000091552734
0.000000000000,-0.013336181641,0.123062133789,0.000274658203,0.000106811523,-0.000167846680
0.000076293945,-0.014602661133,0.122909545898,0.000534057617,0.000122070313,-0.000411987305
0.000091552734,-0.015045166016,0.123184204102,0.000640869141,-0.000015258789,-0.000411987305
0.000259399414,-0.014022827148,0.123596191406,0.000671386719,-0.000091552734,-0.000244140625
0.000839233398,-0.013275146484,0.123382568359,0.000686645508,-0.000122070313,-0.000289916992
0.000610351563,-0.014114379883,0.123596191406,0.000686645508,-0.000152587891,-0.000534057617
0.000061035156,-0.015579223633,0.124389648438,0.000717163086,-0.000244140625,-0.000610351563
0.000396728516,-0.015884399414,0.125228881836,0.000610351563,0.000000000000,-0.000427246094
0.000320434570,-0.016647338867,0.125381469727,0.000549316406,0.000137329102,-0.000335693359
0.000793457031,-0.014846801758,0.125061035156,0.000320434570,0.000488281250,0.000061035156
0.000595092773,-0.013946533203,0.123107910156,0.000335693359,0.000488281250,0.000030517578
0.000396728516,-0.014923095703,0.124420166016,0.000274658203,0.000122070313,-0.000167846680

0.047271728516,-0.040924072266,0.222000122070,0.027145385742,-0.030685424805,-0.001876831055
0.046752929688,-0.053680419922,0.207611083984,0.033782958984,-0.027969360352,-0.000793457031
0.035003662109,-0.022460937500,0.193618774414,0.042098999023,-0.027145385742,-0.000595092773
0.034057617188,-0.031372070313,0.189071655273,0.028518676758,-0.025741577148,-0.006149291992
0.029678344727,-0.062683105469,0.174041748047,0.015472412109,-0.022735595703,-0.018554687500
0.028030395508,-0.075607299805,0.177230834961,0.016113281250,-0.022766113281,-0.020980834961
0.032028198242,-0.079711914063,0.181365966797,0.011047363281,-0.020507812500,-0.016754150391
0.041748046875,-0.071594238281,0.199401855469,0.004623413086,-0.019668579102,-0.012954711914
0.050582885742,-0.054412841797,0.211227416992,-0.008087158203,-0.014114379883,-0.007720947266
0.048294067383,-0.058700561523,0.208358764648,-0.011062622070,-0.010253906250,-0.006454467773
0.043869018555,-0.065567016602,0.198715209961,-0.015472412109,-0.001708984375,-0.001785278320
0.035781860352,-0.066482543945,0.170852661133,-0.016906738281,0.001190185547,0.001052856445
0.034240722656,-0.061233520508,0.159637451172,-0.016647338867,0.004074096680,0.006179809570
0.036300659180,-0.036865234375,0.144973754883,-0.014877319336,0.004608154297,0.007385253906
0.037918090820,-0.027694702148,0.142425537109,-0.012207031250,0.004608154297,0.007202148438
0.040267944336,-0.014556884766,0.137451171875,-0.005126953125,0.006164550781,0.004592895508
0.039077758789,-0.012496948242,0.129943847656,-0.001586914063,0.006988525391,0.002624511719
0.035797119141,-0.017654418945,0.123016357422,0.003250122070,0.005432128906,-0.000915527344
0.033859252930,-0.017074584961,0.122512817383,0.004409790039,0.004516601563,-0.001190185547
0.030715942383,-0.021896362305,0.119049072266,0.003036499023,0.003982543945,-0.001281738281
0.029815673828,-0.021469116211,0.119964599609,0.001785278320,0.003845214844,-0.001052856445
0.028182983398,-0.022506713867,0.115798950195,0.000244140625,0.004577636719,-0.000732421875
0.025985717773,-0.023986816406,0.110321044922,-0.000915527344,0.004638671875,-0.000534057617
0.024475097656,-0.024734497070,0.109725952148,-0.003311157227,0.003677368164,0.000350952148
0.024368286133,-0.021911621094,0.109222412109,-0.004013061523,0.003341674805,0.000808715820
0.024017333984,-0.018569946289,0.109603881836,-0.003295898438,0.002578735352,0.000366210937
0.024108886719,-0.018280029297,0.111694335938,-0.002471923828,0.002044677734,-0.000198364258
0.023696899414,-0.019760131836,0.114120483398,-0.001586914063,0.001708984375,-0.000640869141
0.024230957031,-0.018524169922,0.115310668945,-0.000854492188,0.001861572266,-0.000427246094
0.023849487305,-0.020843505859,0.118270874023,-0.000823974609,0.001785278320,-0.000015258789
0.024063110352,-0.019393920898,0.119735717773,-0.000839233398,0.001968383789,0.000411987305
0.023849487305,-0.018447875977,0.120864868164,-0.001068115234,0.002120971680,0.000747680664
0.024124145508,-0.012481689453,0.118713378906,-0.001373291016,0.002212524414,0.000808715820
0.023223876953,-0.013595581055,0.119186401367,-0.001358032227,0.001892089844,0.000366210937
0.023925781250,-0.013732910156,0.122222900391,-0.000823974609,0.001632690430,0.000183105469
0.023544311523,-0.013763427734,0.121078491211,-0.000564575195,0.001754760742,0.000122070313
0.022583007813,-0.016876220703,0.114913940430,-0.000366210937,0.001647949219,-0.000061035156
0.027420043945,-0.013870239258,0.125335693359,-0.000991821289,0.000854492188,0.000000000000
0.022766113281,-0.016616821289,0.118484497070,0.000961303711,0.000961303711,-0.000335693359
0.023101806641,-0.017135620117,0.119964599609,0.001739501953,0.000381469727,-0.000366210937
0.023361206055,-0.015960693359,0.119750976563,0.002777099609,0.000320434570,-0.000198364258
0.022506713867,-0.017440795898,0.117294311523,0.003189086914,0.000701904297,0.000076293945
0.022888183594,-0.016235351563,0.115997314453,0.003295898438,0.000640869141,0.000656127930
0.023086547852,-0.015975952148,0.115615844727,0.003097534180,0.000396728516,0.000747680664
0.024002075195,-0.013412475586,0.115951538086,0.002975463867,0.000335693359,0.000885009766
0.024978637695,-0.013870239258,0.115234375000,0.003524780273,-0.000167846680,-0.000015258789
0.024902343750,-0.019073486328,0.116958618164,0.003631591797,-0.000549316406,-0.000549316406
0.024505615234,-0.022171020508,0.117691040039,0.004013061523,-0.000808715820,-0.000366210937
0.024795532227,-0.022933959961,0.117385864258,0.003997802734,-0.000747680664,-0.000183105469
0.025970458984,-0.024124145508,0.119186401367,0.003997802734,-0.000595092773,0.000061035156
0.026153564453,-0.024765014648,0.119720458984,0.003692626953,-0.000411987305,0.000289916992
0.026367187500,-0.023391723633,0.117324829102,0.003051757813,-0.000015258789,0.000808715820
0.027130126953,-0.025268554688,0.119964599609,0.002288818359,-0.000244140625,0.000839233398
0.027954101563,-0.024597167969,0.120849609375,0.001678466797,0.000030517578,0.001007080078
0.027374267578,-0.023742675781,0.119598388672,0.001312255859,0.000183105469,0.000976562500
0.026641845703,-0.024383544922,0.118743896484,0.001235961914,0.000015258789,0.000747680664
0.027084350586,-0.022598266602,0.119979858398,0.000732421875,-0.000244140625,0.000671386719
0.027252197266,-0.022918701172,0.121658325195,0.000717163086,-0.000411987305,0.000427246094
0.026672363281,-0.025009155273,0.122756958008,0.000411987305,-0.000381469727,0.000015258789
0.027069091797,-0.026123046875,0.123901367188,0.000335693359,-0.000320434570,-0.000045776367
0.026077270508,-0.024169921875,0.120880126953,-0.000091552734,0.000411987305,0.000228881836
0.025909423828,-0.022506713867,0.120223999023,-0.000274658203,0.000595092773,0.000228881836
0.025192260742,-0.023971557617,0.118896484375,-0.000442504883,0.000839233398,0.000106811523
0.025146484375,-0.022247314453,0.117446899414,-0.000549316406,0.000915527344,0.000167846680
0.025009155273,-0.022338867188,0.117172241211,-0.000671386719,0.000671386719,0.000061035156
0.025375366211,-0.021759033203,0.118606567383,-0.000686645508,0.000427246094,0.000015258789
0.025756835938,-0.021621704102,0.119293212891,-0.000503540039,0.000366210937,-0.000137329102
0.025939941406,-0.022048950195,0.119033813477,-0.000350952148,0.000320434570,-0.000244140625
0.025848388672,-0.022399902344,0.119110107422,-0.000061035156,0.000213623047,-0.000305175781
0.024765014648,-0.021453857422,0.116592407227,-0.000045776367,0.000167846680,-0.000350952148
0.024551391602,-0.019912719727,0.115875244141,0.000061035156,-0.000305175781,-0.000808715820
0.026000976563,-0.023254394531,0.119003295898,0.000503540039,-0.000335693359,-0.000900268555
0.025985717773,-0.023239135742,0.119628906250,0.000457763672,-0.000152587891,-0.000686645508
0.025451660156,-0.021194458008,0.117706298828,0.000015258789,0.000228881836,-0.000122070313
0.025024414063,-0.021331787109,0.118179321289,-0.000137329102,0.000274658203,-0.000015258789
0.025405883789,-0.020797729492,0.118606567383,-0.000228881836,0.000305175781,0.000213623047
0.024993896484,-0.020324707031,0.117980957031,-0.000244140625,0.000396728516,0.000244140625
0.025024414063,-0.020721435547,0.119506835938,0.000030517578,0.000167846680,0.000030517578
0.025161743164,-0.021606445313,0.119522094727,0.000152587891,0.000183105469,-0.000045776367
0.025314331055,-0.023040771484,0.120849609375,0.000534057617,0.000106811523,-0.000091552734
0.025802612305,-0.023223876953,0.121200561523,0.000671386719,0.000152587891,-0.000015258789
0.025726318359,-0.027038574219,0.122207641602,0.000946044922,0.000000000000,0.000000000000
0.026275634766,-0.022293090820,0.121383666992,0.000930786133,0.000106811523,0.000167846680
0.026107788086,-0.022094726563,0.121231079102,0.000961303711,0.000259399414,0.000137329102
0.025604248047,-0.022491455078,0.120880126953,0.000946044922,0.000411987305,0.000152587891
0.025390625000,-0.022308349609,0.119628906250,0.000991821289,0.000610351563,0.000274658203
0.025283813477,-0.021026611328,0.117889404297,0.000961303711,0.000595092773,0.000350952148
0.025955200195,-0.020050048828,0.118881225586,0.000930786133,0.000503540039,0.000289916992
0.025817871094,-0.020309448242,0.117202758789,0.001129150391,0.000427246094,-0.000076293945
0.025634765625,-0.020889282227,0.117309570313,0.001083374023,0.000274658203,-0.000213623047
0.024749755859,-0.020843505859,0.115783691406,0.001068115234,0.000152587891,-0.000350952148
0.025177001953,-0.022125244141,0.117904663086,0.000900268555,0.000030517578,-0.000411987305
0.026000976563,-0.022079467773,0.119003295898,0.000549316406,0.000106811523,-0.000335693359
0.025817871094,-0.023056030273,0.119140625000,0.000427246094,0.000259399414,-0.000305175781
0.026046752930,-0.022994995117,0.120040893555,-0.000030517578,0.000411987305,-0.000167846680
0.025802612305,-0.022079467773,0.118469238281,0.000015258789,0.000473022461,-0.000198364258
0.025894165039,-0.021820068359,0.118881225586,0.000274658203,-0.000030517578,-0.000457763672
0.025497436523,-0.021896362305,0.119705200195,0.000381469727,-0.000030517578,-0.000595092773
0.025604248047,-0.021301269531,0.118988037109,0.000411987305,0.000091552734,-0.000595092773
0.025268554688,-0.022201538086,0.120315551758,0.000396728516,0.000152587891,-0.000671386719
0.025222778320,-0.022613525391,0.118911743164,0.000381469727,0.000396728516,-0.000595092773
0.025604248047,-0.022521972656,0.120712280273,0.000061035156,0.000198364258,-0.000488281250
0.025497436523,-0.021530151367,0.119506835938,0.000015258789,0.000320434570,-0.000442504883
0.026031494141,-0.022872924805,0.120895385742,-0.000137329102,0.000411987305,-0.000381469727

0.085037231445,-0.052917480469,0.187637329102,0.007507324219,0.002502441406,0.001571655273
0.093261718750,-0.056549072266,0.204833984375,0.007766723633,0.004730224609,0.002136230469
0.112930297852,-0.062652587891,0.252700805664,0.006500244141,0.012542724609,0.003524780273
0.123199462891,-0.067489624023,0.271713256836,0.004302978516,0.019409179688,0.004837036133
0.110809326172,-0.091033935547,0.342620849609,-0.006744384766,0.035980224609,0.011642456055
0.148178100586,-0.112289428711,0.383666992188,-0.018966674805,0.050384521484,0.017837524414
0.126480102539,-0.107147216797,0.375595092773,-0.040908813477,0.092895507813,0.031280517578
0.075531005859,-0.081329345703,0.309295654297,-0.046234130859,0.110458374023,0.034973144531
0.056488037109,-0.069412231445,0.267395019531,-0.050537109375,0.124221801758,0.037872314453
-0.006057739258,-0.057952880859,0.165252685547,-0.060668945313,0.141479492188,0.038177490234
-0.022598266602,-0.036712646484,0.090087890625,-0.063323974609,0.144073486328,0.037063598633
-0.033889770508,0.035736083984,-0.033187866211,-0.042495727539,0.129409790039,0.024246215820
-0.031005859375,0.048156738281,-0.070144653320,-0.027999877930,0.115051269531,0.013427734375
-0.021957397461,0.062088012695,-0.106414794922,0.002120971680,0.081726074219,-0.004989624023
0.009567260742,0.064193725586,-0.091369628906,0.008850097656,0.065307617188,-0.011184692383
0.008987426758,0.051437377930,-0.069442749023,0.013107299805,0.045639038086,-0.017272949219
0.007812500000,0.035034179688,-0.067626953125,0.007003784180,0.042419433594,-0.017669677734
0.000030517578,0.009231567383,-0.066329956055,-0.006561279297,0.038894653320,-0.012802124023
-0.000610351563,0.007064819336,-0.066436767578,-0.011962890625,0.037948608398,-0.009292602539
-0.008880615234,-0.001556396484,-0.102066040039,-0.014907836914,0.038864135742,-0.004318237305
-0.017471313477,-0.009414672852,-0.122085571289,-0.014648437500,0.037918090820,-0.002227783203
-0.020950317383,-0.012756347656,-0.153610229492,-0.015365600586,0.029922485352,0.001968383789
-0.019439697266,-0.012298583984,-0.158035278320,-0.015319824219,0.023956298828,0.004013061523
-0.015045166016,0.001632690430,-0.171905517578,-0.013549804688,0.011596679688,0.007385253906
-0.011215209961,0.013610839844,-0.180145263672,-0.012939453125,0.005050659180,0.008209228516
-0.008270263672,0.024612426758,-0.187988281250,-0.010391235352,-0.008956909180,0.007629394531
-0.005920410156,0.023208618164,-0.179138183594,-0.009887695313,-0.016830444336,0.006820678711
0.002380371094,0.021926879883,-0.161575317383,-0.008026123047,-0.029296875000,0.005798339844
0.008575439453,0.023696899414,-0.148773193359,-0.008392333984,-0.034408569336,0.005599975586
0.012863159180,0.028213500977,-0.146667480469,-0.006698608398,-0.042709350586,0.004821777344
0.013656616211,0.036468505859,-0.134979248047,-0.006973266602,-0.047927856445,0.003982543945
0.011611938477,0.031005859375,-0.116195678711,-0.008666992188,-0.057098388672,0.002380371094
0.006393432617,0.029495239258,-0.087432861328,-0.010314941406,-0.059707641602,0.002517700195
0.005264282227,0.032196044922,-0.073562622070,-0.013870239258,-0.064025878906,0.002471923828
0.002655029297,0.023269653320,-0.060287475586,-0.014236450195,-0.067886352539,0.002929687500
0.003051757813,0.026779174805,-0.035995483398,-0.014770507813,-0.074401855469,0.007751464844
0.017456054688,0.052124023438,0.031509399414,-0.014389038086,-0.084854125977,0.009292602539
0.033874511719,0.062957763672,0.074142456055,-0.014068603516,-0.088439941406,0.009948730469
0.061676025391,0.071151733398,0.126113891602,-0.010025024414,-0.088623046875,0.008117675781
0.066436767578,0.071060180664,0.130645751953,-0.004791259766,-0.085678100586,0.005538940430
0.060287475586,0.039245605469,0.120422363281,0.008758544922,-0.078628540039,-0.002914428711
0.045455932617,0.022445678711,0.104568481445,0.014999389648,-0.074737548828,-0.005950927734
0.038711547852,0.004806518555,0.131988525391,0.016815185547,-0.073272705078,-0.007415771484
0.050170898438,0.015060424805,0.160522460938,0.016815185547,-0.073165893555,-0.006408691406
0.073059082031,0.033889770508,0.211517333984,0.019668579102,-0.068603515625,-0.007659912109
0.076568603516,0.019119262695,0.227279663086,0.021087646484,-0.063781738281,-0.010467529297
0.076324462891,-0.012557983398,0.237869262695,0.023437500000,-0.049133300781,-0.013610839844
0.074310302734,-0.018478393555,0.226364135742,0.023010253906,-0.040573120117,-0.013442993164
0.071411132813,-0.031387329102,0.197769165039,0.021972656250,-0.026626586914,-0.011978149414
0.067596435547,-0.034667968750,0.189941406250,0.021026611328,-0.021743774414,-0.010772705078
0.065307617188,-0.039672851563,0.180297851563,0.017456054688,-0.015502929688,-0.008529663086
0.066879272461,-0.043502807617,0.188354492188,0.018798828125,-0.015365600586,-0.006652832031
0.071228027344,-0.034042358398,0.180801391602,0.017593383789,-0.011108398438,-0.006576538086
0.070220947266,-0.036880493164,0.176025390625,0.013092041016,-0.009368896484,-0.008621215820
0.068267822266,-0.040466308594,0.168914794922,0.011505126953,-0.006469726563,-0.010498046875
0.066436767578,-0.043853759766,0.157882690430,0.009445190430,-0.006057739258,-0.010940551758
0.066162109375,-0.044876098633,0.151077270508,0.008010864258,-0.004867553711,-0.010696411133
0.064682006836,-0.036102294922,0.134979248047,0.004882812500,-0.001907348633,-0.009262084961
0.064987182617,-0.040191650391,0.128829956055,0.002151489258,-0.000473022461,-0.008102416992
0.065597534180,-0.035720825195,0.121093750000,-0.002700805664,0.002258300781,-0.004180908203
0.066543579102,-0.033172607422,0.117355346680,-0.003616333008,0.003662109375,-0.003265380859
0.065551757813,-0.025848388672,0.096084594727,-0.004028320313,0.006469726563,-0.002090454102
0.066116333008,-0.024948120117,0.092071533203,-0.003906250000,0.005813598633,-0.002105712891
0.067153930664,-0.021713256836,0.094284057617,-0.002716064453,0.002105712891,-0.002990722656
0.069442749023,-0.024368286133,0.105804443359,-0.001815795898,0.000015258789,-0.003723144531
0.071487426758,-0.023635864258,0.114181518555,-0.000183105469,-0.000305175781,-0.004638671875
0.069473266602,-0.024505615234,0.112930297852,0.000427246094,0.000015258789,-0.005172729492
0.065689086914,-0.034027099609,0.111999511719,0.000259399414,0.000579833984,-0.005844116211
0.064620971680,-0.036117553711,0.111816406250,0.000289916992,0.001144409180,-0.005493164063
0.062820434570,-0.040878295898,0.111190795898,0.000320434570,0.002593994141,-0.004531860352
0.061904907227,-0.039978027344,0.108032226563,0.000411987305,0.003234863281,-0.003814697266
0.061172485352,-0.037643432617,0.108215332031,0.001434326172,0.003417968750,-0.002838134766
0.060165405273,-0.040252685547,0.103668212891,0.003204345703,0.003646850586,-0.002578735352
0.060226440430,-0.038131713867,0.102935791016,0.004623413086,0.003265380859,-0.002105712891
0.062149047852,-0.038619995117,0.103240966797,0.004730224609,0.002914428711,-0.001831054688
0.062362670898,-0.037429809570,0.105102539063,0.004226684570,0.002731323242,-0.001174926758
0.061950683594,-0.036102294922,0.101165771484,0.004013061523,0.003616333008,-0.001052856445
0.062011718750,-0.032714843750,0.095733642578,0.003738403320,0.003753662109,-0.000991821289
0.062927246094,-0.029022216797,0.099121093750,0.002777099609,0.001708984375,-0.001770019531
0.063262939453,-0.030349731445,0.102676391602,0.002502441406,0.001129150391,-0.002487182617
0.060348510742,-0.034255981445,0.100402832031,0.002990722656,0.001129150391,-0.003509521484
0.060348510742,-0.037185668945,0.101425170898,0.002914428711,0.000686645508,-0.003753662109
0.059555053711,-0.037216186523,0.102081298828,0.002517700195,0.000564575195,-0.003494262695
0.059036254883,-0.038085937500,0.101470947266,0.002380371094,0.000656127930,-0.003417968750
0.061203002930,-0.040359497070,0.102325439453,0.002136230469,0.000549316406,-0.003265380859
0.062118530273,-0.040954589844,0.103836059570,0.001815795898,0.000625610352,-0.003021240234
0.062576293945,-0.039810180664,0.102157592773,0.001205444336,0.001480102539,-0.002563476563
0.063064575195,-0.038986206055,0.099624633789,0.001022338867,0.001815795898,-0.002517700195
0.062622070313,-0.039428710938,0.097808837891,0.000854492188,0.002105712891,-0.002563476563
0.062622070313,-0.039291381836,0.097167968750,0.000747680664,0.002304077148,-0.002487182617
0.062500000000,-0.039016723633,0.095703125000,0.000656127930,0.002441406250,-0.002395629883
0.062713623047,-0.037796020508,0.093780517578,0.000595092773,0.002395629883,-0.002304077148
0.062515258789,-0.036773681641,0.092315673828,0.000656127930,0.002319335938,-0.002349853516
0.062561035156,-0.038391113281,0.092758178711,0.000457763672,0.001327514648,-0.002731323242
0.062850952148,-0.038879394531,0.094528198242,0.000427246094,0.000946044922,-0.002822875977
0.062057495117,-0.041473388672,0.096038818359,0.000610351563,0.001083374023,-0.003051757813
0.061309814453,-0.042739868164,0.095535278320,0.000732421875,0.001312255859,-0.003021240234
0.060211181641,-0.045028686523,0.094467163086,0.000762939453,0.001708984375,-0.002777099609
0.059661865234,-0.047729492188,0.093521118164,0.000793457031,0.001693725586,-0.002639770508
0.060104370117,-0.047073364258,0.091888427734,0.000915527344,0.001296997070,-0.001998901367
0.060424804688,-0.047653198242,0.092422485352,0.001037597656,0.001113891602,-0.001861572266
0.062210083008,-0.048370361328,0.093917846680,0.001205444336,0.001007080078,-0.001464843750
0.063446044922,-0.047561645508,0.094177246094,0.001266479492,0.000885009766,-0.001281738281
0.064361572266,-0.049392700195,0.097229003906,0.001571655273,0.000411987305,-0.001266479492

0.092864990234,-0.080368041992,0.167953491211,0.002014160156,-0.007186889648,-0.000045776367
0.111968994141,-0.090286254883,0.210693359375,0.003295898438,-0.008163452148,-0.000274658203
0.144714355469,-0.131942749023,0.317169189453,0.004989624023,-0.005661010742,0.001037597656
0.157836914063,-0.145980834961,0.368133544922,0.004776000977,0.000885009766,0.003631591797
0.175506591797,-0.222869873047,0.499862670898,-0.010940551758,0.029647827148,0.014694213867
0.160293579102,-0.217987060547,0.499938964844,-0.028137207031,0.055099487305,0.026718139648
0.136383056641,-0.176361083984,0.478210449219,-0.051040649414,0.103698730469,0.046112060547
0.064193725586,-0.078659057617,0.353897094727,-0.054107666016,0.120056152344,0.046585083008
0.048126220703,-0.051803588867,0.300231933594,-0.053344726563,0.133407592773,0.037567138672
-0.013092041016,0.003906250000,0.200820922852,-0.040863037109,0.138031005859,0.029388427734
-0.043792724609,0.004394531250,0.142318725586,-0.031463623047,0.138885498047,0.020462036133
-0.078338623047,0.015487670898,0.052825927734,-0.021728515625,0.132415771484,0.010925292969
-0.086669921875,0.026367187500,0.010482788086,-0.018875122070,0.125762939453,0.007705688477
-0.093597412109,0.025878906250,-0.053344726563,-0.009719848633,0.108001708984,-0.000411987305
-0.086654663086,0.018554687500,-0.073272705078,-0.004608154297,0.098190307617,-0.003601074219
-0.063018798828,0.023727416992,-0.093978881836,0.001342773438,0.079040527344,-0.006011962891
-0.056411743164,0.021270751953,-0.089263916016,0.001632690430,0.071716308594,-0.006469726563
-0.045654296875,0.014984130859,-0.092971801758,-0.001327514648,0.065261840820,-0.004699707031
-0.040573120117,0.009780883789,-0.100021362305,-0.003601074219,0.062713623047,-0.003555297852
-0.024581909180,0.000747680664,-0.115936279297,-0.005523681641,0.056961059570,-0.003143310547
-0.023391723633,-0.005508422852,-0.123809814453,-0.003906250000,0.053955078125,-0.004287719727
-0.009552001953,-0.007507324219,-0.136901855469,-0.000686645508,0.044326782227,-0.005126953125
-0.006149291992,-0.011322021484,-0.136627197266,-0.000381469727,0.038665771484,-0.005187988281
0.003067016602,-0.020431518555,-0.139312744141,-0.001312255859,0.028945922852,-0.004364013672
0.007095336914,-0.019287109375,-0.144454956055,-0.000747680664,0.024078369141,-0.003234863281
0.021194458008,-0.024337768555,-0.132904052734,-0.000915527344,0.013046264648,-0.001785278320
0.028640747070,-0.022201538086,-0.120788574219,-0.000457763672,0.008178710938,-0.000564575195
0.046035766602,-0.024856567383,-0.124984741211,0.001663208008,0.000701904297,0.002090454102
0.048461914063,-0.020843505859,-0.045364379883,0.006088256836,-0.005920410156,0.002319335938
0.061645507813,-0.015167236328,-0.078338623047,-0.004119873047,0.014389038086,0.004928588867
0.072021484375,-0.010299682617,-0.079284667969,-0.006912231445,0.015319824219,0.007080078125
0.076568603516,0.006805419922,-0.088577270508,-0.008850097656,0.014999389648,0.009918212891
0.084213256836,0.016769409180,-0.102935791016,-0.007843017578,0.013870239258,0.009902954102
0.088073730469,0.022216796875,-0.106643676758,-0.003417968750,0.006057739258,0.006347656250
0.098937988281,0.029159545898,-0.097930908203,-0.001358032227,0.001663208008,0.004318237305
0.099563598633,0.027694702148,-0.092605590820,-0.000427246094,-0.001876831055,0.002151489258
0.094909667969,0.017593383789,-0.088943481445,-0.000366210937,-0.006683349609,-0.001556396484
0.091339111328,0.009506225586,-0.087158203125,0.000030517578,-0.008575439453,-0.003204345703
0.085098266602,-0.005050659180,-0.084960937500,0.000503540039,-0.009750366211,-0.005477905273
0.082977294922,-0.011779785156,-0.080078125000,0.000808715820,-0.010040283203,-0.005950927734
0.082229614258,-0.019714355469,-0.081451416016,0.000854492188,-0.008666992188,-0.005065917969
0.081619262695,-0.024291992188,-0.083160400391,-0.000015258789,-0.007827758789,-0.004104614258
0.077194213867,-0.024398803711,-0.096054077148,-0.000976562500,-0.007324218750,-0.001480102539
0.076293945313,-0.024276733398,-0.098129272461,-0.001617431641,-0.008361816406,-0.000595092773
0.075302124023,-0.022323608398,-0.097473144531,-0.002410888672,-0.012161254883,0.000839233398
0.073364257813,-0.018646240234,-0.101287841797,-0.001602172852,-0.014312744141,0.001235961914
0.068313598633,-0.016754150391,-0.110153198242,0.001586914063,-0.020263671875,0.001144409180
0.065780639648,-0.012680053711,-0.113830566406,0.003753662109,-0.024063110352,0.000823974609
0.059524536133,-0.006759643555,-0.122070312500,0.009414672852,-0.032104492188,-0.001022338867
0.056274414063,-0.006546020508,-0.123870849609,0.012008666992,-0.036087036133,-0.002227783203
0.047668457031,-0.018066406250,-0.126968383789,0.016296386719,-0.043426513672,-0.005264282227
0.045547485352,-0.023864746094,-0.123123168945,0.017227172852,-0.046524047852,-0.005935668945
0.045669555664,-0.026794433594,-0.108749389648,0.016662597656,-0.051635742188,-0.005172729492
0.048355102539,-0.021667480469,-0.100494384766,0.015213012695,-0.052688598633,-0.004074096680
0.046676635742,0.008422851563,-0.086959838867,0.011077880859,-0.052261352539,-0.002700805664
0.048233032227,-0.004531860352,-0.066253662109,0.004089355469,-0.050048828125,-0.004043579102
0.051834106445,-0.007614135742,-0.054473876953,0.000595092773,-0.045181274414,-0.010635375977
0.064758300781,0.002716064453,-0.050277709961,-0.006179809570,-0.047424316406,-0.008224487305
0.056671142578,0.033645629883,0.006362915039,-0.000274658203,-0.049621582031,-0.014038085938
0.061752319336,0.038116455078,0.004150390625,-0.007446289063,-0.040496826172,-0.024429321289
0.064437866211,-0.039123535156,-0.053695678711,0.000045776367,-0.028610229492,-0.030639648438
0.047058105469,-0.022903442383,-0.031311035156,0.003189086914,-0.038024902344,-0.018341064453
0.046920776367,-0.019760131836,-0.005264282227,-0.003143310547,-0.050125122070,-0.003921508789
0.047805786133,-0.008132934570,0.015365600586,-0.005615234375,-0.053924560547,0.000213623047
0.053314208984,-0.000061035156,0.044342041016,-0.005874633789,-0.056121826172,0.001785278320
0.056671142578,0.002487182617,0.055419921875,-0.004730224609,-0.055404663086,0.001190185547
0.052795410156,-0.000122070313,0.066009521484,-0.001510620117,-0.052200317383,-0.000762939453
0.053573608398,0.000747680664,0.074569702148,-0.000488281250,-0.051055908203,-0.001098632813
0.061584472656,0.006774902344,0.096237182617,-0.000167846680,-0.048370361328,-0.001144409180
0.059234619141,0.002578735352,0.102081298828,-0.000137329102,-0.045684814453,-0.001632690430
0.057098388672,-0.004180908203,0.104492187500,0.000274658203,-0.039733886719,-0.001739501953
0.051849365234,-0.017822265625,0.104934692383,0.000625610352,-0.037246704102,-0.001174926758
0.051330566406,-0.021255493164,0.096496582031,0.002655029297,-0.035690307617,0.001190185547
0.050079345703,-0.009399414063,0.098541259766,0.002243041992,-0.039443969727,0.001602172852
0.053848266602,-0.007186889648,0.115478515625,0.001678466797,-0.042907714844,0.000717163086
0.058792114258,-0.001373291016,0.137710571289,0.002517700195,-0.042648315430,-0.000747680664
0.056533813477,-0.008178710938,0.138244628906,0.003311157227,-0.040542602539,-0.002166748047
0.051788330078,-0.022079467773,0.145004272461,0.002899169922,-0.036849975586,-0.003036499023
0.053604125977,-0.023818969727,0.150802612305,0.002670288086,-0.035064697266,-0.002044677734
0.063812255859,-0.022811889648,0.165100097656,0.002319335938,-0.031692504883,-0.000045776367
0.065353393555,-0.025115966797,0.175201416016,0.002868652344,-0.030517578125,0.000808715820
0.064056396484,-0.027877807617,0.166778564453,0.005126953125,-0.027984619141,-0.000198364258
0.061340332031,-0.038070678711,0.169403076172,0.004776000977,-0.027847290039,-0.002029418945
0.066268920898,-0.043533325195,0.181915283203,0.003829956055,-0.027206420898,-0.001373291016
0.070846557617,-0.040954589844,0.188568115234,0.004394531250,-0.026458740234,-0.000793457031
0.074737548828,-0.047363281250,0.195907592773,0.000640869141,-0.023468017578,0.000030517578
0.082733154297,-0.055160522461,0.199356079102,0.001358032227,-0.020996093750,0.000686645508
0.083633422852,-0.062393188477,0.196105957031,0.001953125000,-0.013458251953,0.003234863281
0.086959838867,-0.064178466797,0.186798095703,0.002197265625,-0.010131835938,0.005035400391
0.089584350586,-0.057205200195,0.179367065430,0.002120971680,-0.007293701172,0.008041381836
0.092941284180,-0.044906616211,0.162322998047,0.004318237305,-0.003875732422,0.008621215820
0.094024658203,-0.044952392578,0.155944824219,0.003570556641,-0.002853393555,0.008605957031
0.095825195313,-0.040283203125,0.141357421875,0.003356933594,-0.001693725586,0.008712768555
0.098541259766,-0.035690307617,0.135620117188,0.002899169922,-0.001480102539,0.008621215820
0.100173950195,-0.032821655273,0.131179809570,0.001159667969,-0.001434326172,0.007507324219
0.100097656250,-0.033401489258,0.131866455078,0.000747680664,-0.001586914063,0.007034301758
0.107330322266,-0.027969360352,0.138351440430,-0.000244140625,-0.001815795898,0.006683349609
0.108840942383,-0.028671264648,0.140899658203,-0.000549316406,-0.001358032227,0.006378173828
0.106628417969,-0.026779174805,0.137191772461,-0.000122070313,0.000656127930,0.006042480469
0.105255126953,-0.026321411133,0.135375976563,0.000274658203,0.001510620117,0.005844116211
0.102111816406,-0.023056030273,0.128036499023,0.000793457031,0.003189086914,0.005752563477
0.099334716797,-0.022933959961,0.127395629883,0.000686645508,0.004013061523,0.005722045898
0.097045898438,-0.021347045898,0.124847412109,0.000518798828,0.006149291992,0.006027221680
0.091247558594,-0.018890380859,0.118148803711,0.000610351563,0.007293701172,0.006057739258

0.119583129883,-0.037933349609,0.156784057617,0.003219604492,-0.016510009766,-0.003860473633
0.131469726563,-0.042312622070,0.193405151367,0.004516601563,-0.019226074219,-0.005264282227
0.140090942383,-0.070632934570,0.252761840820,0.008483886719,-0.016357421875,-0.007080078125
0.146209716797,-0.084304809570,0.291244506836,0.009597778320,-0.012344360352,-0.006484985352
0.151412963867,-0.107421875000,0.346618652344,0.011962890625,0.004638671875,-0.002212524414
0.154754638672,-0.095458984375,0.355392456055,0.011459350586,0.016723632813,0.001403808594
0.152008056641,-0.105270385742,0.391952514648,0.000213623047,0.042633056641,0.009140014648
0.134719848633,-0.104919433594,0.414840698242,-0.013031005859,0.059875488281,0.016082763672
0.110824584961,-0.084503173828,0.388839721680,-0.043807983398,0.103408813477,0.031036376953
0.015960693359,-0.077163696289,0.341598510742,-0.048049926758,0.123840332031,0.033264160156
-0.013442993164,-0.078506469727,0.286056518555,-0.049407958984,0.151458740234,0.032608032227
-0.073135375977,-0.015365600586,0.161636352539,-0.043365478516,0.155380249023,0.030395507813
-0.092910766602,0.008529663086,0.105621337891,-0.033126831055,0.149261474609,0.018478393555
-0.118347167969,0.039321899414,-0.000366210937,-0.029281616211,0.140457153320,0.011520385742
-0.122009277344,0.044067382813,-0.040191650391,-0.026504516602,0.129516601563,-0.003158569336
-0.095687866211,0.052124023438,-0.103332519531,-0.014923095703,0.103286743164,-0.009155273438
-0.088333129883,0.047485351563,-0.123397827148,-0.007751464844,0.087905883789,-0.014801025391
-0.073181152344,0.036834716797,-0.132766723633,-0.000320434570,0.062591552734,-0.022766113281
-0.065719604492,0.026580810547,-0.134201049805,0.003829956055,0.053421020508,-0.025344848633
-0.054473876953,-0.009185791016,-0.129684448242,0.006347656250,0.039489746094,-0.025817871094
-0.050308227539,-0.026000976563,-0.125396728516,0.005371093750,0.034332275391,-0.023727416992
-0.041702270508,-0.035568237305,-0.136428833008,0.006607055664,0.027191162109,-0.016510009766
-0.035781860352,-0.035675048828,-0.145019531250,0.005599975586,0.024215698242,-0.012817382813
-0.023727416992,-0.028808593750,-0.163574218750,0.003952026367,0.015747070313,-0.006225585938
-0.019058227539,-0.028106689453,-0.170608520508,0.003372192383,0.010574340820,-0.003448486328
-0.011596679688,-0.030593872070,-0.173583984375,0.001724243164,-0.002075195313,0.002243041992
-0.006072998047,-0.032531738281,-0.170791625977,0.001159667969,-0.008743286133,0.005279541016
-0.005447387695,-0.008468627930,-0.145446777344,0.006896972656,-0.024765014648,0.009643554688
0.002258300781,-0.023727416992,-0.114669799805,0.008666992188,-0.027511596680,0.004959106445
0.020996093750,-0.016342163086,-0.135726928711,0.001403808594,-0.013778686523,0.005645751953
0.026840209961,-0.012039184570,-0.128433227539,-0.000839233398,-0.016616821289,0.008300781250
0.036636352539,0.012863159180,-0.105697631836,-0.007171630859,-0.023956298828,0.013000488281
0.045303344727,0.019927978516,-0.100234985352,-0.010223388672,-0.026184082031,0.013000488281
0.055328369141,0.049468994141,-0.100540161133,-0.006988525391,-0.035903930664,0.012313842773
0.053039550781,0.053771972656,-0.098968505859,-0.000564575195,-0.043258666992,0.009155273438
0.038726806641,0.034652709961,-0.094421386719,0.007614135742,-0.055267333984,0.000411987305
0.031127929688,0.016479492188,-0.083999633789,0.008010864258,-0.059997558594,-0.002441406250
0.024765014648,-0.008499145508,-0.062286376953,0.005523681641,-0.065536499023,-0.003295898438
0.024169921875,-0.017181396484,-0.043853759766,0.003829956055,-0.067626953125,-0.001800537109
0.041290283203,-0.009353637695,0.012634277344,-0.000869750977,-0.069366455078,0.004837036133
0.054870605469,0.012451171875,0.043319702148,-0.003570556641,-0.068161010742,0.008178710938
0.072113037109,0.028274536133,0.065185546875,-0.005249023438,-0.060836791992,0.009368896484
0.084365844727,0.036911010742,0.078674316406,-0.005218505859,-0.056182861328,0.007400512695
0.083450317383,0.029953002930,0.076812744141,-0.005004882813,-0.047668457031,0.003082275391
0.072769165039,0.010620117188,0.056106567383,-0.002243041992,-0.045288085938,0.001785278320
0.066833496094,0.005798339844,0.050292968750,-0.000823974609,-0.045730590820,0.001678466797
0.061706542969,-0.003509521484,0.057540893555,0.001617431641,-0.052032470703,0.003570556641
0.056640625000,-0.002456665039,0.065261840820,0.002731323242,-0.054687500000,0.005310058594
0.056213378906,-0.001541137695,0.089538574219,0.008575439453,-0.058517456055,0.007476806641
0.059066772461,0.008316040039,0.110260009766,0.010467529297,-0.059829711914,0.007797241211
0.081329345703,0.027603149414,0.152725219727,0.014892578125,-0.057723999023,0.005584716797
0.090286254883,0.042160034180,0.164428710938,0.017211914063,-0.054229736328,0.003356933594
0.096557617188,0.041976928711,0.174972534180,0.019134521484,-0.045440673828,-0.004776000977
0.091918945313,0.026016235352,0.171203613281,0.020263671875,-0.041534423828,-0.009155273438
0.073822021484,-0.011001586914,0.149810791016,0.020660400391,-0.034988403320,-0.014801025391
0.063705444336,-0.028213500977,0.146011352539,0.020843505859,-0.033767700195,-0.015457153320
0.056549072266,-0.050796508789,0.146316528320,0.018844604492,-0.033172607422,-0.012817382813
0.054199218750,-0.056869506836,0.149826049805,0.018356323242,-0.033126831055,-0.010330200195
0.055877685547,-0.058502197266,0.150787353516,0.014801025391,-0.033264160156,-0.005325317383
0.069290161133,-0.040420532227,0.176300048828,0.009170532227,-0.032745361328,-0.003402709961
0.078231811523,-0.028381347656,0.189956665039,0.002258300781,-0.027343750000,-0.003219604492
0.081207275391,-0.028106689453,0.196960449219,0.000335693359,-0.022979736328,-0.003829956055
0.080978393555,-0.031555175781,0.198211669922,-0.001068115234,-0.014556884766,-0.003463745117
0.081237792969,-0.037170410156,0.190826416016,-0.003738403320,-0.010513305664,-0.002914428711
0.080108642578,-0.039581298828,0.180465698242,-0.004257202148,-0.007369995117,-0.001998901367
0.080963134766,-0.045104980469,0.172576904297,-0.005187988281,-0.003753662109,0.000183105469
0.082260131836,-0.042068481445,0.164871215820,-0.004669189453,-0.001953125000,0.001846313477
0.082153320313,-0.031555175781,0.148300170898,-0.003646850586,0.000289916992,0.004074096680
0.082275390625,-0.027633666992,0.143768310547,-0.003005981445,0.001052856445,0.004653930664
0.082687377930,-0.016265869141,0.130645751953,-0.001785278320,0.002960205078,0.005233764648
0.082656860352,-0.013748168945,0.126617431641,-0.001205444336,0.003616333008,0.005004882813
0.082153320313,-0.008300781250,0.117721557617,-0.000442504883,0.004547119141,0.004455566406
0.079330444336,-0.008285522461,0.110473632813,-0.000183105469,0.004837036133,0.004074096680
0.082015991211,-0.004791259766,0.106246948242,-0.000411987305,0.004272460938,0.003616333008
0.079391479492,-0.008392333984,0.101654052734,-0.000564575195,0.004364013672,0.003448486328
0.078262329102,-0.008438110352,0.099273681641,-0.000839233398,0.003997802734,0.003326416016
0.078842163086,-0.006027221680,0.101593017578,-0.000991821289,0.002624511719,0.003051757813
0.079208374023,-0.007141113281,0.104797363281,-0.000732421875,0.002212524414,0.002670288086
0.081161499023,-0.007537841797,0.110534667969,0.000076293945,0.002151489258,0.002090454102
0.079940795898,-0.009689331055,0.112960815430,0.000427246094,0.002319335938,0.001739501953
0.081588745117,-0.006729125977,0.112518310547,0.000732421875,0.003402709961,0.001724243164
0.077697753906,-0.009231567383,0.102066040039,0.001617431641,0.004425048828,0.001342773438
0.076416015625,-0.011459350586,0.100524902344,0.001068115234,0.003601074219,0.000900268555
0.075180053711,-0.011856079102,0.100830078125,0.000762939453,0.003936767578,0.001296997070
0.074630737305,-0.010574340820,0.099975585938,0.000549316406,0.004135131836,0.001632690430
0.073608398438,-0.005294799805,0.096496582031,0.000320434570,0.004028320313,0.001785278320
0.073989868164,-0.005004882813,0.097503662109,0.000549316406,0.003570556641,0.001327514648
0.073455810547,-0.004516601563,0.098190307617,0.001373291016,0.002365112305,0.000122070313
0.072799682617,-0.004913330078,0.097869873047,0.001922607422,0.002151489258,-0.000457763672
0.072494506836,-0.004547119141,0.098785400391,0.002090454102,0.001800537109,-0.000961303711
0.072067260742,-0.005004882813,0.098846435547,0.002029418945,0.001724243164,-0.001098632813
0.071426391602,-0.006469726563,0.098800659180,0.001800537109,0.001724243164,-0.001296997070
0.068923950195,-0.009384155273,0.098190307617,0.001251220703,0.002075195313,-0.001174926758
0.067962646484,-0.009979248047,0.097137451172,0.000854492188,0.002319335938,-0.001022338867
0.067123413086,-0.010238647461,0.095993041992,0.000228881836,0.002365112305,-0.000381469727
0.066879272461,-0.010284423828,0.096572875977,0.000076293945,0.002227783203,-0.000152587891
0.067825317383,-0.010162353516,0.098281860352,0.000076293945,0.001739501953,0.000167846680
0.067886352539,-0.009582519531,0.098159790039,0.000396728516,0.001617431641,0.000183105469
0.068481445313,-0.008743286133,0.099655151367,0.000610351563,0.001022338867,-0.000183105469
0.069442749023,-0.009979248047,0.101608276367,0.000854492188,0.000930786133,-0.000381469727
0.069519042969,-0.010711669922,0.101867675781,0.000885009766,0.000961303711,-0.000350952148
0.068786621094,-0.007812500000,0.099044799805,0.000900268555,0.001342773438,-0.000137329102
0.069320678711,-0.008682250977,0.099441528320,0.000869750977,0.001266479492,-0.000244140625
0.070068359375,-0.009170532227,0.099441528320,0.000946044922,0.001174926758,-0.000244140625

0.100708007813,-0.040771484375,0.200637817383,0.018753051758,-0.034347534180,-0.012863159180
0.111816406250,-0.069000244141,0.240936279297,0.024398803711,-0.036926269531,-0.015991210938
0.117187500000,-0.122314453125,0.307113647461,0.033889770508,-0.029235839844,-0.016052246094
0.111251831055,-0.138381958008,0.320526123047,0.036178588867,-0.020248413086,-0.013000488281
0.105712890625,-0.144134521484,0.328720092773,0.034637451172,-0.001770019531,-0.002227783203
0.091751098633,-0.126831054688,0.338775634766,0.028915405273,0.009613037109,0.005050659180
0.081787109375,-0.118713378906,0.326889038086,0.018753051758,0.022796630859,0.012603759766
0.071762084961,-0.088348388672,0.330551147461,-0.008132934570,0.047851562500,0.027099609375
0.067901611328,-0.085906982422,0.344604492188,-0.024520874023,0.062118530273,0.032577514648
0.044479370117,-0.096511840820,0.378356933594,-0.053070068359,0.096160888672,0.040557861328
0.026702880859,-0.093048095703,0.374069213867,-0.062026977539,0.114837646484,0.042449951172
-0.009231567383,-0.061309814453,0.317901611328,-0.061614990234,0.147079467773,0.039443969727
-0.082290649414,-0.055679321289,0.282623291016,-0.055038452148,0.159774780273,0.034927368164
-0.108047485352,-0.028030395508,0.210678100586,-0.046524047852,0.170455932617,0.027374267578
-0.141876220703,0.047134399414,0.056213378906,-0.029632568359,0.167785644531,0.021240234375
-0.139938354492,0.069747924805,-0.002304077148,-0.024749755859,0.156631469727,0.012039184570
-0.125045776367,0.078948974609,-0.102203369141,-0.010925292969,0.124664306641,-0.005996704102
-0.113632202148,0.069152832031,-0.117507934570,-0.006500244141,0.105728149414,-0.012527465820
-0.100189208984,0.041305541992,-0.110305786133,-0.007324218750,0.075302124023,-0.020523071289
-0.097824096680,0.023712158203,-0.119918823242,-0.005981445313,0.066467285156,-0.022842407227
-0.086578369141,0.003234863281,-0.122268676758,-0.004959106445,0.050323486328,-0.023742675781
-0.079498291016,-0.008483886719,-0.124984741211,-0.005020141602,0.043106079102,-0.023025512695
-0.077651977539,-0.019165039063,-0.132476806641,-0.000198364258,0.033355712891,-0.019332885742
-0.077255249023,-0.041458129883,-0.162643432617,0.000854492188,0.030075073242,-0.017059326172
-0.072662353516,-0.052215576172,-0.176452636719,0.001708984375,0.025482177734,-0.013854980469
-0.059265136719,-0.060760498047,-0.192108154297,0.001052856445,0.012008666992,-0.004409790039
-0.047439575195,-0.056350708008,-0.190185546875,-0.000228881836,0.004165649414,0.001174926758
-0.031494140625,-0.032104492188,-0.188110351563,-0.001541137695,-0.009979248047,0.011962890625
-0.022674560547,-0.017196655273,-0.182647705078,-0.002456665039,-0.016403198242,0.015350341797
-0.005477905273,0.005447387695,-0.164962768555,-0.001754760742,-0.028625488281,0.015945434570
0.001022338867,0.012359619141,-0.161911010742,0.000778198242,-0.033523559570,0.013839721680
0.007308959961,0.019287109375,-0.151870727539,0.005172729492,-0.043014526367,0.007476806641
0.011047363281,0.015167236328,-0.109985351563,0.008331298828,-0.047836303711,0.002929687500
0.018035888672,0.009521484375,-0.103088378906,0.007659912109,-0.046615600586,-0.000534057617
0.023284912109,0.024124145508,-0.103988647461,0.000198364258,-0.041824340820,0.000717163086
0.022247314453,0.016494750977,-0.096618652344,-0.002868652344,-0.042846679688,0.000305175781
0.025558471680,0.007598876953,-0.049911499023,-0.011505126953,-0.049041748047,0.002502441406
0.036529541016,0.004638671875,-0.032852172852,-0.017364501953,-0.049880981445,0.004638671875
0.050460815430,0.024337768555,0.009490966797,-0.017898559570,-0.056732177734,0.012023925781
0.055023193359,0.035598754883,0.018310546875,-0.014831542969,-0.056976318359,0.013702392578
0.058883666992,0.038436889648,0.027709960938,-0.011703491211,-0.055328369141,0.013031005859
0.062881469727,0.039733886719,0.041595458984,-0.006896972656,-0.054687500000,0.012039184570
0.065399169922,0.036941528320,0.052139282227,-0.005599975586,-0.055358886719,0.011535644531
0.071426391602,0.045639038086,0.073318481445,-0.004867553711,-0.055923461914,0.012374877930
0.075973510742,0.051986694336,0.086425781250,-0.002914428711,-0.056015014648,0.011993408203
0.093902587891,0.068313598633,0.111465454102,-0.001174926758,-0.056488037109,0.009979248047
0.093032836914,0.064270019531,0.112045288086,0.000350952148,-0.054763793945,0.007263183594
0.088363647461,0.054000854492,0.105621337891,0.003890991211,-0.049407958984,0.001419067383
0.074386596680,0.026733398438,0.085647583008,0.006515502930,-0.048294067383,-0.000961303711
0.069473266602,0.015533447266,0.092834472656,0.007522583008,-0.048767089844,-0.001754760742
0.071762084961,0.012802124023,0.110702514648,0.006713867188,-0.048812866211,0.000427246094
0.072280883789,0.013748168945,0.121337890625,0.007003784180,-0.048492431641,0.001983642578
0.075988769531,0.006988525391,0.145996093750,0.009490966797,-0.046813964844,0.003646850586
0.081619262695,0.009460449219,0.158203125000,0.013061523438,-0.044540405273,0.004608154297
0.087341308594,0.011688232422,0.170074462891,0.018646240234,-0.037887573242,0.004089355469
0.093841552734,0.008438110352,0.172729492188,0.021713256836,-0.033950805664,0.003067016602
0.103027343750,0.007308959961,0.174713134766,0.023574829102,-0.031585693359,0.002136230469
0.106338500977,-0.004608154297,0.176925659180,0.024200439453,-0.029006958008,0.000488281250
0.104095458984,-0.009185791016,0.180664062500,0.027999877930,-0.028060913086,0.000061035156
0.107498168945,-0.026138305664,0.191085815430,0.030197143555,-0.024276733398,-0.000396728516
0.107406616211,-0.028137207031,0.189468383789,0.030029296875,-0.019744873047,-0.000930786133
0.111099243164,-0.048797607422,0.179901123047,0.023513793945,-0.012969970703,-0.003051757813
0.115310668945,-0.045989990234,0.178176879883,0.020462036133,-0.010986328125,-0.001663208008
0.116897583008,-0.038177490234,0.167098999023,0.009643554688,-0.007934570313,-0.001403808594
0.112319946289,-0.029403686523,0.158813476563,0.007171630859,-0.006622314453,-0.002670288086
0.108886718750,-0.031997680664,0.151565551758,0.005264282227,-0.001358032227,-0.004638671875
0.103607177734,-0.034286499023,0.133377075195,0.002975463867,-0.002899169922,-0.004898071289
0.101226806641,-0.034973144531,0.128860473633,0.001419067383,-0.002258300781,-0.004364013672
0.094635009766,-0.033782958984,0.114227294922,-0.001129150391,0.000183105469,-0.001800537109
0.093124389648,-0.031860351563,0.109268188477,-0.002410888672,0.001342773438,-0.000274658203
0.093353271484,-0.020156860352,0.100799560547,-0.004699707031,0.002944946289,0.002822875977
0.092971801758,-0.015655517578,0.098205566406,-0.005508422852,0.003402709961,0.003356933594
0.091705322266,-0.006851196289,0.095962524414,-0.006881713867,0.004287719727,0.003433227539
0.091339111328,-0.003372192383,0.093170166016,-0.006759643555,0.004638671875,0.002853393555
0.091217041016,-0.004653930664,0.093948364258,-0.005935668945,0.004501342773,0.001068115234
0.089736938477,-0.003479003906,0.090606689453,-0.005386352539,0.004226684570,0.000335693359
0.087280273438,-0.006240844727,0.091247558594,-0.004333496094,0.003494262695,-0.000503540039
0.084594726563,-0.010848999023,0.091949462891,-0.002944946289,0.002639770508,-0.001022338867
0.083557128906,-0.011367797852,0.092407226563,-0.001815795898,0.002334594727,-0.001007080078
0.079483032227,-0.010726928711,0.088760375977,0.000396728516,0.002334594727,-0.000473022461
0.078781127930,-0.011215209961,0.087142944336,0.001266479492,0.002288818359,-0.000198364258
0.076660156250,-0.009475708008,0.088714599609,0.001998901367,0.002120971680,0.000717163086
0.076797485352,-0.006225585938,0.089355468750,0.002120971680,0.002502441406,0.001251220703
0.077621459961,-0.004379272461,0.093826293945,0.001770019531,0.003387451172,0.001846313477
0.079101562500,-0.002822875977,0.094360351563,0.001708984375,0.004364013672,0.002029418945
0.078277587891,-0.002319335938,0.093154907227,0.001983642578,0.005432128906,0.002365112305
0.078323364258,-0.001022338867,0.090301513672,0.002258300781,0.006698608398,0.002563476563
0.077285766602,0.001770019531,0.084625244141,0.002609252930,0.006851196289,0.002487182617
0.077941894531,0.001449584961,0.084930419922,0.003692626953,0.004760742188,0.001480102539
0.077789306641,0.000625610352,0.084091186523,0.004318237305,0.003814697266,0.000946044922
0.077316284180,-0.001998901367,0.084136962891,0.005111694336,0.002304077148,0.000091552734
0.078491210938,-0.002670288086,0.083953857422,0.005081176758,0.001815795898,-0.000076293945
0.078857421875,-0.004989624023,0.089569091797,0.004135131836,0.000656127930,-0.000228881836
0.079254150391,-0.007598876953,0.089477539063,0.004043579102,0.000732421875,-0.000137329102
0.079132080078,-0.008880615234,0.090194702148,0.000015258789,0.000808715820,0.000106811523
0.080017089844,-0.007919311523,0.089630126953,0.003326416016,0.000869750977,0.000259399414
0.079956054688,-0.006713867188,0.089889526367,0.002761840820,0.000793457031,0.000137329102
0.080871582031,-0.008148193359,0.092407226563,0.001739501953,0.000427246094,-0.000473022461
0.080810546875,-0.010101318359,0.092208862305,0.001388549805,0.000503540039,-0.000625610352
0.079589843750,-0.010772705078,0.088546752930,0.000274658203,0.000930786133,-0.000274658203
0.079483032227,-0.010803222656,0.087570190430,-0.000305175781,0.000671386719,-0.000137329102
0.080123901367,-0.010681152344,0.088272094727,-0.000930786133,-0.000061035156,-0.000015258789
0.079467773438,-0.011093139648,0.088241577148,-0.001113891602,-0.000137329102,-0.000061035156
0.079589843750,-0.008270263672,0.090423583984,-0.001907348633,-0.000442504883,0.000000000000

0.115020751953,-0.027313232422,0.165740966797,0.000808715820,-0.016052246094,-0.001007080078
0.122116088867,-0.032974243164,0.182693481445,0.001541137695,-0.014480590820,-0.000976562500
0.131301879883,-0.037658691406,0.213195800781,0.002578735352,-0.009597778320,-0.000518798828
0.134094238281,-0.045745849609,0.227203369141,0.004333496094,-0.006423950195,-0.000701904297
0.142013549805,-0.047378540039,0.268493652344,0.008148193359,0.000244140625,-0.000747680664
0.148574829102,-0.051162719727,0.306625366211,0.007858276367,0.004760742188,-0.000579833984
0.158767700195,-0.059936523438,0.346374511719,0.003707885742,0.022186279297,0.002059936523
0.141616821289,-0.071258544922,0.333160400391,0.002227783203,0.033386230469,0.003845214844
0.123565673828,-0.078628540039,0.309585571289,0.000106811523,0.053054809570,0.010559082031
0.097290039063,-0.060897827148,0.286499023438,-0.002151489258,0.060653686523,0.014770507813
0.102706909180,-0.034561157227,0.288009643555,-0.003936767578,0.067199707031,0.017959594727
0.078338623047,-0.006729125977,0.255676269531,-0.001815795898,0.080764770508,0.017196655273
0.063430786133,-0.006240844727,0.232208251953,-0.000335693359,0.086654663086,0.015594482422
0.012496948242,-0.011337280273,0.168136596680,0.001388549805,0.094482421875,0.013473510742
0.021270751953,-0.006927490234,0.157958984375,-0.002670288086,0.094696044922,0.013336181641
0.000503540039,0.015411376953,0.113510131836,0.000640869141,0.095626831055,0.012344360352
-0.005691528320,0.024612426758,0.090469360352,0.001037597656,0.094116210938,0.010665893555
-0.026382446289,0.032318115234,0.057922363281,0.001312255859,0.087341308594,0.006912231445
-0.031723022461,0.030670166016,0.040084838867,-0.002304077148,0.085540771484,0.004776000977
-0.039077758789,0.026184082031,0.026947021484,-0.007568359375,0.082565307617,0.001739501953
-0.049301147461,0.027526855469,-0.007843017578,-0.011352539063,0.081146240234,0.000900268555
-0.054367065430,0.034332275391,-0.031860351563,-0.009216308594,0.079071044922,0.000076293945
-0.059112548828,0.029876708984,-0.078918457031,-0.005783081055,0.071121215820,-0.004898071289
-0.057403564453,0.026672363281,-0.106185913086,-0.002197265625,0.065414428711,-0.007034301758
-0.054306030273,0.026473999023,-0.171386718750,0.001510620117,0.050994873047,-0.009445190430
-0.052642822266,0.010742187500,-0.188156127930,0.002548217773,0.040878295898,-0.011001586914
-0.051544189453,-0.008239746094,-0.210327148438,0.003097534180,0.020462036133,-0.010681152344
-0.046234130859,-0.017105102539,-0.207916259766,0.001022338867,0.010162353516,-0.009399414063
-0.025924682617,-0.019958496094,-0.177261352539,-0.000732421875,-0.009643554688,-0.004180908203
-0.016113281250,-0.015258789063,-0.164093017578,-0.001388549805,-0.017684936523,-0.001800537109
-0.005966186523,-0.005294799805,-0.157806396484,0.001464843750,-0.028213500977,0.000686645508
-0.002685546875,-0.002243041992,-0.158432006836,0.004119873047,-0.031738281250,0.000701904297
0.003082275391,0.002212524414,-0.144638061523,0.004165649414,-0.038650512695,0.000167846680
0.006072998047,0.005340576172,-0.129440307617,0.003112792969,-0.041412353516,-0.000045776367
0.008071899414,0.005905151367,-0.080612182617,0.001770019531,-0.044525146484,-0.001510620117
0.013793945313,0.004684448242,-0.072723388672,-0.001724243164,-0.037643432617,-0.002304077148
0.023681640625,0.013015747070,-0.077285766602,-0.010635375977,-0.025131225586,-0.000137329102
0.023971557617,0.010040283203,-0.071075439453,-0.014450073242,-0.024154663086,0.001159667969
0.023513793945,0.011611938477,-0.063537597656,-0.022262573242,-0.024642944336,0.004547119141
0.025299072266,0.023010253906,-0.059860229492,-0.028076171875,-0.027175903320,0.005981445313
0.030136108398,0.013427734375,-0.019989013672,-0.024459838867,-0.039215087891,0.007202148438
0.033935546875,0.020202636719,-0.011230468750,-0.020095825195,-0.041748046875,0.010101318359
0.036499023438,0.026199340820,0.003723144531,-0.014831542969,-0.047805786133,0.010696411133
0.033737182617,0.028091430664,0.009841918945,-0.012054443359,-0.051788330078,0.010025024414
0.029541015625,0.027847290039,0.022476196289,-0.007446289063,-0.060302734375,0.009368896484
0.041549682617,0.042846679688,0.071289062500,-0.006744384766,-0.063751220703,0.009338378906
0.048263549805,0.048263549805,0.095458984375,-0.006668090820,-0.065155029297,0.008712768555
0.062240600586,0.054046630859,0.132339477539,-0.008331298828,-0.062896728516,0.006790161133
0.064880371094,0.050735473633,0.141632080078,-0.008819580078,-0.060134887695,0.005371093750
0.056686401367,0.029449462891,0.140457153320,-0.006027221680,-0.054397583008,0.001693725586
0.048431396484,0.011642456055,0.136337280273,-0.004440307617,-0.052520751953,0.000442504883
0.038406372070,-0.003555297852,0.133331298828,0.001556396484,-0.051696777344,0.002578735352
0.032073974609,-0.009262084961,0.132415771484,0.002563476563,-0.051437377930,0.004196166992
0.030197143555,-0.010223388672,0.157501220703,0.006851196289,-0.051864624023,0.008346557617
0.036987304688,-0.013992309570,0.178115844727,0.011322021484,-0.051269531250,0.010238647461
0.044891357422,-0.007827758789,0.199386596680,0.017990112305,-0.046508789063,0.013320922852
0.074966430664,0.003356933594,0.228042602539,0.020767211914,-0.043258666992,0.014221191406
0.080703735352,0.013809204102,0.235580444336,0.028121948242,-0.040328979492,0.014312744141
0.095245361328,0.029998779297,0.227890014648,0.029769897461,-0.035461425781,0.009414672852
0.090362548828,0.023757934570,0.227767944336,0.027374267578,-0.034439086914,0.003631591797
0.086364746094,-0.025863647461,0.220581054688,0.022979736328,-0.029373168945,-0.004867553711
0.087875366211,-0.037918090820,0.217102050781,0.022933959961,-0.026718139648,-0.005172729492
0.095581054688,-0.053405761719,0.209472656250,0.022857666016,-0.021484375000,-0.004364013672
0.095611572266,-0.055511474609,0.197860717773,0.021667480469,-0.018920898438,-0.003570556641
0.096145629883,-0.045089721680,0.181137084961,0.016876220703,-0.015426635742,-0.002365112305
0.097229003906,-0.040435791016,0.175567626953,0.014053344727,-0.013931274414,-0.002075195313
0.098754882813,-0.032211303711,0.168243408203,0.008605957031,-0.010604858398,-0.001617431641
0.098815917969,-0.029586791992,0.163406372070,0.006195068359,-0.008712768555,-0.001281738281
0.099761962891,-0.025283813477,0.156250000000,0.000701904297,-0.004806518555,-0.000122070313
0.101119995117,-0.026046752930,0.156951904297,-0.002044677734,-0.003143310547,0.000457763672
0.101043701172,-0.025970458984,0.154525756836,-0.005081176758,0.000473022461,0.002059936523
0.101806640625,-0.029357910156,0.154342651367,-0.006118774414,0.002487182617,0.003067016602
0.100845336914,-0.029800415039,0.151733398438,-0.006439208984,0.004669189453,0.004150390625
0.099136352539,-0.025772094727,0.144424438477,-0.006469726563,0.008377075195,0.006423950195
0.097015380859,-0.022644042969,0.138183593750,-0.006118774414,0.009918212891,0.007217407227
0.091705322266,-0.025192260742,0.118270874023,-0.006408691406,0.011932373047,0.006179809570
0.092254638672,-0.003540039063,0.123458862305,-0.005142211914,0.010848999023,0.007293701172
0.090820312500,0.000701904297,0.115219116211,0.000366210937,0.010101318359,0.003784179688
0.086669921875,-0.002105712891,0.109863281250,0.002288818359,0.009857177734,0.002243041992
0.083404541016,0.001510620117,0.100875854492,0.004165649414,0.009307861328,0.001235961914
0.081848144531,0.002410888672,0.098205566406,0.004074096680,0.008514404297,0.000595092773
0.080841064453,-0.000747680664,0.103103637695,0.004333496094,0.007171630859,-0.000183105469
0.080017089844,-0.002777099609,0.103454589844,0.004455566406,0.007583618164,0.000091552734
0.080398559570,-0.000640869141,0.103729248047,0.003799438477,0.008300781250,0.000579833984
0.078308105469,-0.002288818359,0.103378295898,0.003311157227,0.008636474609,0.000549316406
0.077590942383,-0.003311157227,0.102554321289,0.002716064453,0.009368896484,0.000900268555
0.073623657227,-0.004013061523,0.096954345703,0.001831054688,0.011260986328,0.001541137695
0.071426391602,-0.001068115234,0.091049194336,0.001876831055,0.011856079102,0.001617431641
0.068313598633,-0.000015258789,0.084197998047,0.002212524414,0.011077880859,0.000701904297
0.067642211914,-0.001998901367,0.084045410156,0.002410888672,0.010253906250,0.000045776367
0.067169189453,-0.002807617188,0.082702636719,0.002777099609,0.008926391602,-0.000793457031
0.065338134766,-0.001327514648,0.078109741211,0.002929687500,0.008468627930,-0.001098632813
0.064605712891,-0.005905151367,0.078582763672,0.002929687500,0.006622314453,-0.002273559570
0.063827514648,-0.006591796875,0.077987670898,0.002822875977,0.006042480469,-0.002441406250
0.063385009766,-0.007598876953,0.077865600586,0.002090454102,0.005462646484,-0.002441406250
0.063095092773,-0.008285522461,0.075851440430,0.001358032227,0.005111694336,-0.002182006836
0.062698364258,-0.008377075195,0.076431274414,0.000579833984,0.004562377930,-0.001861572266
0.064987182617,-0.011901855469,0.081665039063,-0.000946044922,0.003585815430,-0.001541137695
0.066665649414,-0.012252807617,0.084945678711,-0.001647949219,0.003356933594,-0.001220703125
0.068466186523,-0.012588500977,0.086441040039,-0.002670288086,0.003295898438,-0.000991821289
0.068237304688,-0.012817382813,0.086608886719,-0.002929687500,0.003219604492,-0.000976562500
0.069030761719,-0.011550903320,0.085159301758,-0.002944946289,0.002624511719,-0.001052856445
0.070022583008,-0.013626098633,0.087768554688,-0.002685546875,0.001846313477,-0.001220703125
0.071090698242,-0.016555786133,0.093017578125,-0.002136230469,0.000976562500,-0.001235961914

0.120010375977,-0.017684936523,0.164062500000,-0.001571655273,-0.000152587891,-0.006210327148
0.124725341797,-0.020095825195,0.172637939453,-0.000503540039,0.001205444336,-0.006317138672
0.128936767578,-0.032302856445,0.183959960938,0.002334594727,0.005767822266,-0.006301879883
0.129516601563,-0.035491943359,0.187011718750,0.003509521484,0.008026123047,-0.005783081055
0.141174316406,-0.041198730469,0.217422485352,0.003845214844,0.012283325195,-0.004180908203
0.145584106445,-0.043518066406,0.228942871094,0.002853393555,0.016296386719,-0.002700805664
0.155883789063,-0.051498413086,0.266693115234,-0.003341674805,0.026809692383,0.001159667969
0.167602539063,-0.027343750000,0.296691894531,-0.007003784180,0.033538818359,0.004135131836
0.168319702148,-0.016571044922,0.269271850586,-0.008972167969,0.054656982422,0.002731323242
0.119125366211,-0.047790527344,0.240615844727,-0.008575439453,0.062942504883,0.001510620117
0.101089477539,-0.049774169922,0.208770751953,-0.008773803711,0.077255249023,0.005844116211
0.062515258789,-0.042800903320,0.137756347656,-0.011932373047,0.076599121094,0.008316040039
0.060470581055,-0.030563354492,0.123916625977,-0.013427734375,0.075653076172,0.009674072266
0.065139770508,-0.010711669922,0.131927490234,-0.009780883789,0.073501586914,0.008422851563
0.063186645508,-0.006668090820,0.130538940430,-0.008575439453,0.075241088867,0.006225585938
0.047592163086,0.001281738281,0.108673095703,-0.003860473633,0.079132080078,0.002258300781
0.026992797852,0.004592895508,0.096755981445,-0.004119873047,0.080673217773,0.001251220703
0.004486083984,-0.008621215820,0.058929443359,-0.014846801758,0.084548950195,-0.000381469727
-0.003890991211,-0.006301879883,0.039123535156,-0.018371582031,0.084655761719,0.000122070313
-0.016143798828,0.007583618164,-0.013107299805,-0.023468017578,0.081924438477,-0.001052856445
-0.021713256836,0.012832641602,-0.037109375000,-0.025192260742,0.078262329102,-0.003829956055
-0.025009155273,0.015197753906,-0.085388183594,-0.015502929688,0.068283081055,-0.008529663086
-0.025238037109,0.017822265625,-0.102432250977,-0.011428833008,0.061660766602,-0.010086059570
-0.023956298828,0.004913330078,-0.124420166016,-0.004135131836,0.047134399414,-0.015045166016
-0.026458740234,-0.007629394531,-0.134719848633,-0.000366210937,0.040130615234,-0.016784667969
-0.026687622070,-0.042098999023,-0.155441284180,0.004470825195,0.026855468750,-0.016601562500
-0.020370483398,-0.053665161133,-0.158767700195,0.004928588867,0.018844604492,-0.014068603516
-0.013778686523,-0.061584472656,-0.158370971680,0.002120971680,0.002838134766,-0.005966186523
0.003829956055,-0.056533813477,-0.138549804688,0.001800537109,-0.003890991211,-0.001510620117
0.012512207031,-0.049957275391,-0.130905151367,0.002014160156,-0.011581420898,0.005355834961
0.025131225586,-0.029846191406,-0.123870849609,-0.001159667969,-0.013961791992,0.007568359375
0.032424926758,-0.020690917969,-0.123413085938,-0.002029418945,-0.015533447266,0.008560180664
0.042449951172,-0.009292602539,-0.115280151367,-0.005157470703,-0.016952514648,0.008270263672
0.041717529297,-0.010559082031,-0.105346679688,-0.004562377930,-0.019027709961,0.007415771484
0.044418334961,-0.026092529297,-0.074859619141,-0.008377075195,-0.007080078125,0.002944946289
0.045791625977,-0.022827148438,-0.098480224609,-0.012451171875,0.002761840820,0.003814697266
0.040985107422,-0.022369384766,-0.092727661133,-0.017211914063,0.000167846680,0.006942749023
0.037414550781,-0.018783569336,-0.091613769531,-0.019134521484,-0.001617431641,0.007873535156
0.031341552734,-0.034103393555,-0.103302001953,-0.020553588867,-0.007965087891,0.008834838867
0.027633666992,-0.025253295898,-0.098403930664,-0.016082763672,-0.015197753906,0.011322021484
0.024841308594,-0.023101806641,-0.075942993164,-0.010482788086,-0.027389526367,0.013015747070
0.022918701172,-0.019104003906,-0.068527221680,-0.009963989258,-0.030929565430,0.013946533203
0.028137207031,-0.001220703125,-0.040435791016,-0.007064819336,-0.040008544922,0.017105102539
0.032409667969,0.009765625000,-0.022674560547,-0.004776000977,-0.044403076172,0.018753051758
0.033660888672,0.022140502930,-0.013336181641,-0.000595092773,-0.047180175781,0.018386840820
0.031158447266,0.014450073242,-0.017211914063,0.000244140625,-0.048141479492,0.017456054688
0.019210815430,0.015029907227,0.003128051758,-0.000289916992,-0.053054809570,0.018463134766
0.027481079102,0.020156860352,0.024353027344,-0.001602172852,-0.056030273438,0.020034790039
0.032028198242,0.040481567383,0.061080932617,-0.003143310547,-0.057189941406,0.022705078125
0.033142089844,0.043228149414,0.074035644531,-0.004348754883,-0.055969238281,0.023376464844
0.037887573242,0.062103271484,0.088790893555,-0.002304077148,-0.053466796875,0.023986816406
0.040435791016,0.063278198242,0.091308593750,0.001220703125,-0.052108764648,0.022430419922
0.034667968750,0.058914184570,0.089202880859,0.009185791016,-0.050827026367,0.017669677734
0.031204223633,0.052520751953,0.099945068359,0.011795043945,-0.052276611328,0.016342163086
0.031768798828,0.056777954102,0.109008789063,0.014160156250,-0.053985595703,0.015426635742
0.039459228516,0.067947387695,0.135284423828,0.017623901367,-0.055480957031,0.012374877930
0.045501708984,0.064147949219,0.155654907227,0.018417358398,-0.054382324219,0.009735107422
0.054550170898,0.042556762695,0.167770385742,0.019027709961,-0.046676635742,0.006362915039
0.055862426758,0.042083740234,0.169189453125,0.019180297852,-0.043518066406,0.006393432617
0.062759399414,0.022171020508,0.159439086914,0.020843505859,-0.038024902344,0.003402709961
0.059921264648,0.030792236328,0.142578125000,0.025802612305,-0.034133911133,0.002899169922
0.055130004883,0.041244506836,0.113677978516,0.027709960938,-0.028274536133,-0.001739501953
0.043457031250,0.038085937500,0.106124877930,0.027999877930,-0.025878906250,-0.005264282227
0.043075561523,0.034667968750,0.107299804688,0.017059326172,-0.025863647461,-0.008789062500
0.080062866211,0.031341552734,0.140502929688,0.010604858398,-0.027496337891,-0.008300781250
0.099197387695,0.044601440430,0.150741577148,0.005905151367,-0.029067993164,-0.007095336914
0.109497070313,0.080047607422,0.133743286133,0.002868652344,-0.028396606445,-0.009750366211
0.097747802734,0.088134765625,0.116607666016,0.004394531250,-0.028274536133,-0.014663696289
0.070449829102,0.068099975586,0.089630126953,0.007293701172,-0.031951904297,-0.028015136719
0.061798095703,0.063201904297,0.093627929688,0.006637573242,-0.034866333008,-0.032852172852
0.043762207031,0.073135375977,0.089233398438,0.002319335938,-0.036911010742,-0.040649414063
0.038284301758,0.072341918945,0.102462768555,-0.001434326172,-0.038497924805,-0.044525146484
0.036163330078,0.053497314453,0.140228271484,-0.011993408203,-0.038146972656,-0.049728393555
0.037429809570,0.037719726563,0.152587890625,-0.013961791992,-0.037139892578,-0.052001953125
0.021957397461,-0.007263183594,0.169052124023,-0.017196655273,-0.034103393555,-0.054885864258
0.017578125000,-0.031433105469,0.179641723633,-0.017364501953,-0.032073974609,-0.054077148438
0.018875122070,-0.060119628906,0.191070556641,-0.017349243164,-0.026824951172,-0.047439575195
0.016281127930,-0.062622070313,0.190032958984,-0.015762329102,-0.024047851563,-0.043106079102
0.013000488281,-0.060516357422,0.181793212891,-0.014923095703,-0.018188476563,-0.035675048828
0.008743286133,-0.040832519531,0.172958374023,-0.015365600586,-0.015777587891,-0.032196044922
0.004989624023,-0.028030395508,0.190200805664,-0.018096923828,-0.013626098633,-0.029724121094
0.015426635742,-0.033279418945,0.191848754883,-0.018295288086,-0.012008666992,-0.029006958008
0.018295288086,-0.039047241211,0.203186035156,-0.020919799805,-0.010559082031,-0.026657104492
0.036529541016,-0.086685180664,0.239852905273,-0.020202636719,-0.009124755859,-0.024795532227
0.044769287109,-0.099502563477,0.247955322266,-0.012649536133,-0.003295898438,-0.017761230469
0.049652099609,-0.101470947266,0.227523803711,-0.009048461914,-0.000244140625,-0.014755249023
0.048904418945,-0.101776123047,0.214859008789,-0.006134033203,0.001342773438,-0.010238647461
0.043319702148,-0.095352172852,0.191131591797,-0.001617431641,0.000930786133,-0.007781982422
0.041229248047,-0.088745117188,0.181472778320,0.000167846680,0.000473022461,-0.001892089844
0.036911010742,-0.062820434570,0.155044555664,0.000427246094,0.000000000000,0.000961303711
0.033630371094,-0.045669555664,0.142059326172,-0.000045776367,-0.000305175781,0.003280639648
0.031753540039,-0.022613525391,0.125671386719,0.001403808594,-0.002639770508,0.003479003906
0.028213500977,-0.015533447266,0.121414184570,0.002365112305,-0.004257202148,0.001998901367
0.020828247070,-0.012512207031,0.114654541016,0.001937866211,-0.007003784180,-0.001159667969
0.018173217773,-0.016326904297,0.113220214844,0.002014160156,-0.008407592773,-0.002151489258
0.018661499023,-0.014648437500,0.109191894531,0.000900268555,-0.010177612305,-0.002655029297
0.016098022461,-0.010269165039,0.112167358398,0.000198364258,-0.010986328125,-0.002609252930
0.010543823242,-0.017883300781,0.108596801758,-0.000427246094,-0.010650634766,-0.001953125000
0.005752563477,-0.015762329102,0.113204956055,-0.001800537109,-0.010559082031,-0.000610351563
0.003921508789,-0.017501831055,0.117843627930,-0.004074096680,-0.009185791016,0.002517700195
0.009216308594,-0.012802124023,0.123962402344,-0.005905151367,-0.008636474609,0.004272460938
0.012252807617,-0.010009765625,0.130874633789,-0.006774902344,-0.006683349609,0.006286621094
0.011398315430,-0.008102416992,0.129623413086,-0.006729125977,-0.005020141602,0.006912231445
0.008850097656,-0.002456665039,0.135314941406,-0.005767822266,-0.001953125000,0.007263183594

0.049346923828,-0.072769165039,0.209396362305,-0.005920410156,-0.003524780273,-0.014328002930
0.070999145508,-0.081649780273,0.240722656250,-0.009017944336,-0.004425048828,-0.017974853516
0.092758178711,-0.123596191406,0.309143066406,-0.007110595703,-0.003326416016,-0.025573730469
0.086547851563,-0.157836914063,0.328796386719,-0.003799438477,0.001632690430,-0.029190063477
0.071182250977,-0.221405029297,0.328338623047,0.005355834961,0.015838623047,-0.034149169922
0.063369750977,-0.225204467773,0.380462646484,0.009963989258,0.022460937500,-0.022933959961
0.030563354492,-0.183029174805,0.375793457031,0.029602050781,0.044525146484,-0.001922607422
0.018493652344,-0.195159912109,0.380813598633,0.028076171875,0.054260253906,0.005783081055
-0.017257690430,-0.184829711914,0.370101928711,0.029983520508,0.078552246094,0.034942626953
-0.056716918945,-0.087203979492,0.296722412109,0.028915405273,0.092300415039,0.046966552734
-0.064147949219,-0.056716918945,0.266098022461,0.029022216797,0.100433349609,0.050338745117
-0.020172119141,-0.032836914063,0.270431518555,0.022766113281,0.100997924805,0.048995971680
-0.016876220703,-0.007507324219,0.250503540039,0.023071289063,0.103958129883,0.049392700195
-0.027984619141,0.002120971680,0.183944702148,0.027877807617,0.099243164063,0.043411254883
-0.054687500000,-0.013992309570,0.158172607422,0.026199340820,0.094161987305,0.039566040039
-0.064865112305,-0.004821777344,0.099929809570,0.024383544922,0.090591430664,0.038558959961
-0.074142456055,0.012084960938,0.067886352539,0.022857666016,0.090225219727,0.039138793945
-0.083984375000,0.035614013672,-0.006240844727,0.014175415039,0.087677001953,0.037002563477
-0.085433959961,0.052734375000,-0.046875000000,0.010406494141,0.084518432617,0.033645629883
-0.090545654297,0.085311889648,-0.086471557617,0.004623413086,0.072372436523,0.021759033203
-0.083663940430,0.038848876953,-0.177017211914,0.006240844727,0.065979003906,0.014633178711
-0.078536987305,0.082702636719,-0.139694213867,-0.005966186523,0.049819946289,0.006484985352
-0.063491821289,0.065811157227,-0.143936157227,-0.002212524414,0.047180175781,-0.002731323242
-0.063964843750,0.055999755859,-0.158111572266,-0.008041381836,0.032836914063,-0.008651733398
-0.074096679688,0.025665283203,-0.174804687500,-0.012283325195,0.021163940430,-0.008895874023
-0.077880859375,0.003967285156,-0.166687011719,-0.019042968750,0.000274658203,-0.007186889648
-0.079467773438,-0.015090942383,-0.162567138672,-0.020645141602,-0.007492065430,-0.005050659180
-0.075119018555,-0.011596679688,-0.166824340820,-0.021194458008,-0.020065307617,-0.001327514648
-0.060165405273,0.014465332031,-0.172546386719,-0.018310546875,-0.026138305664,-0.001449584961
-0.054077148438,0.019256591797,-0.167541503906,-0.015182495117,-0.036727905273,-0.005050659180
-0.041641235352,0.021926879883,-0.142288208008,-0.015991210938,-0.041488647461,-0.006454467773
-0.030090332031,0.026473999023,-0.123062133789,-0.017517089844,-0.050262451172,-0.008270263672
-0.011825561523,0.039260864258,-0.088684082031,-0.020446777344,-0.054382324219,-0.009246826172
-0.015670776367,0.032577514648,-0.067398071289,-0.020950317383,-0.062805175781,-0.013259887695
-0.033691406250,0.013122558594,-0.042633056641,-0.025833129883,-0.068008422852,-0.013900756836
-0.043090820313,0.006912231445,-0.024246215820,-0.025924682617,-0.079238891602,-0.013412475586
-0.051727294922,-0.004302978516,0.017410278320,-0.024688720703,-0.081222534180,-0.012130737305
-0.060485839844,-0.002243041992,0.043945312500,-0.024871826172,-0.083267211914,-0.007934570313
-0.034042358398,0.028686523438,0.121154785156,-0.023910522461,-0.084869384766,-0.006103515625
0.009780883789,0.067337036133,0.174072265625,-0.023315429688,-0.085067749023,-0.008468627930
0.038619995117,0.120971679688,0.206695556641,-0.014129638672,-0.082809448242,-0.015823364258
0.033752441406,0.117004394531,0.228286743164,-0.012481689453,-0.081817626953,-0.026367187500
-0.001586914063,0.047683715820,0.250732421875,-0.010467529297,-0.076934814453,-0.048522949219
-0.025939941406,-0.011901855469,0.254562377930,-0.010971069336,-0.071243286133,-0.056320190430
-0.051101684570,-0.108932495117,0.234283447266,-0.011215209961,-0.053009033203,-0.052764892578
-0.050704956055,-0.130920410156,0.213287353516,-0.010559082031,-0.043426513672,-0.043701171875
-0.073165893555,-0.205841064453,0.152816772461,-0.006072998047,-0.027816772461,-0.021484375000
-0.049606323242,-0.074844360352,0.215423583984,0.009948730469,-0.026824951172,-0.000152587891
0.030792236328,-0.026824951172,0.236419677734,-0.048950195313,-0.006958007813,-0.006164550781
0.057510375977,-0.000411987305,0.248718261719,-0.044601440430,-0.011062622070,-0.003692626953
0.048477172852,0.025268554688,0.283340454102,-0.030670166016,-0.021133422852,0.000473022461
0.027603149414,-0.032455444336,0.246200561523,-0.027862548828,-0.020767211914,-0.006530761719
-0.023193359375,-0.154846191406,0.244567871094,0.010620117188,-0.038665771484,-0.002059936523
-0.025177001953,-0.169433593750,0.273315429688,0.028930664063,-0.038574218750,0.011016845703
-0.025543212891,-0.113845825195,0.230194091797,0.042816162109,-0.003402709961,0.029373168945
0.011215209961,-0.080520629883,0.129867553711,0.040756225586,0.008270263672,0.022384643555
0.013046264648,-0.127929687500,0.166488647461,0.046081542969,-0.004837036133,0.003997802734
0.010620117188,-0.116500854492,0.156372070313,0.052017211914,-0.003982543945,0.007980346680
0.022491455078,-0.081909179688,0.171234130859,0.054534912109,-0.004928588867,0.009582519531
0.036239624023,-0.054351806641,0.178207397461,0.037155151367,-0.001052856445,0.004592895508
0.042800903320,-0.080520629883,0.152801513672,-0.001525878906,0.009689331055,-0.017623901367
0.031738281250,-0.101119995117,0.132446289063,-0.008193969727,0.012237548828,-0.022796630859
0.029037475586,-0.113098144531,0.115570068359,-0.008163452148,0.011138916016,-0.020385742188
0.039276123047,-0.084564208984,0.122512817383,-0.006286621094,0.009780883789,-0.017166137695
0.042968750000,-0.062316894531,0.125076293945,0.002777099609,0.010208129883,-0.015441894531
0.038864135742,-0.050125122070,0.111312866211,0.004302978516,0.010391235352,-0.016326904297
0.032333374023,-0.042602539063,0.112991333008,0.001541137695,0.009292602539,-0.017318725586
0.048553466797,0.030242919922,0.162918090820,0.000274658203,0.008544921875,-0.021484375000
0.040664672852,0.046783447266,0.165512084961,0.006561279297,0.012191772461,-0.029327392578
0.001052856445,-0.019393920898,0.100112915039,0.017532348633,0.020935058594,-0.054306030273
-0.006164550781,-0.080627441406,0.077957153320,0.013992309570,0.022689819336,-0.061431884766
0.001525878906,-0.158233642578,0.059249877930,0.007705688477,0.018798828125,-0.051239013672
0.007217407227,-0.147369384766,0.073501586914,0.007339477539,0.014175415039,-0.039535522461
0.016921997070,-0.117340087891,0.093597412109,0.004348754883,0.011306762695,-0.023818969727
0.015258789063,-0.112045288086,0.091766357422,0.002243041992,0.011749267578,-0.020156860352
0.014099121094,-0.095764160156,0.099197387695,-0.004135131836,0.011978149414,-0.014480590820
0.017288208008,-0.087280273438,0.106735229492,-0.007110595703,0.012268066406,-0.012969970703
0.015625000000,-0.084640502930,0.103897094727,-0.008850097656,0.013900756836,-0.010894775391
0.014846801758,-0.079071044922,0.102081298828,-0.008651733398,0.014114379883,-0.009567260742
0.014373779297,-0.074890136719,0.102081298828,-0.007827758789,0.014892578125,-0.007019042969
0.015197753906,-0.070068359375,0.100097656250,-0.010009765625,0.014648437500,-0.006103515625
0.018142700195,-0.068954467773,0.105560302734,-0.010345458984,0.013626098633,-0.005569458008
0.017959594727,-0.074371337891,0.105926513672,-0.009582519531,0.014007568359,-0.005783081055
0.016693115234,-0.078109741211,0.103256225586,-0.008773803711,0.013595581055,-0.006256103516
0.018981933594,-0.075210571289,0.112640380859,-0.008590698242,0.013290405273,-0.006652832031
0.018234252930,-0.076644897461,0.110305786133,-0.006622314453,0.014709472656,-0.008071899414
0.012420654297,-0.085311889648,0.097061157227,-0.006149291992,0.015060424805,-0.008361816406
0.010253906250,-0.088958740234,0.091934204102,-0.005981445313,0.014587402344,-0.007034301758
0.007034301758,-0.085937500000,0.081069946289,-0.005920410156,0.014114379883,-0.005691528320
0.005538940430,-0.079772949219,0.074981689453,-0.005401611328,0.012298583984,-0.003585815430
0.002990722656,-0.077117919922,0.066726684570,-0.003707885742,0.010955810547,-0.003387451172
0.003067016602,-0.076507568359,0.064422607422,-0.004028320313,0.009521484375,-0.003204345703
0.007675170898,-0.073654174805,0.068511962891,-0.003845214844,0.006225585938,-0.002883911133
0.011276245117,-0.074462890625,0.072372436523,-0.003295898438,0.004821777344,-0.002716064453
0.017242431641,-0.072494506836,0.077438354492,-0.003067016602,0.003326416016,-0.003067016602
0.021224975586,-0.070129394531,0.081359863281,-0.002502441406,0.002578735352,-0.003265380859
0.024124145508,-0.073226928711,0.085067749023,-0.002349853516,0.002166748047,-0.004577636719
0.024887084961,-0.075393676758,0.086425781250,-0.001953125000,0.002166748047,-0.004821777344
0.022277832031,-0.073577880859,0.081924438477,-0.001144409180,0.002883911133,-0.003814697266
0.020980834961,-0.072341918945,0.080123901367,-0.001419067383,0.002777099609,-0.003295898438
0.020629882813,-0.062316894531,0.085021972656,-0.000930786133,0.001663208008,-0.002761840820
0.020584106445,-0.054214477539,0.089553833008,-0.001022338867,0.001235961914,-0.002929687500
0.019912719727,-0.058990478516,0.099182128906,-0.000900268555,0.001235961914,-0.005126953125
0.018844604492,-0.066162109375,0.100082397461,-0.000640869141,0.001693725586,-0.005905151367

0.065216064453,-0.124008178711,0.125030517578,0.007354736328,0.002716064453,-0.023818969727
0.080459594727,-0.145187377930,0.163467407227,0.006591796875,0.001632690430,-0.029586791992
0.114532470703,-0.212966918945,0.262924194336,0.003204345703,0.004043579102,-0.043945312500
0.106170654297,-0.274505615234,0.293350219727,0.008255004883,0.009552001953,-0.048645019531
0.042251586914,-0.495056152344,0.179473876953,0.007995605469,0.032073974609,-0.031982421875
0.031768798828,-0.499938964844,0.152191162109,-0.000122070313,0.033660888672,-0.005416870117
0.031524658203,-0.476501464844,0.130416870117,-0.012939453125,0.031372070313,0.051300048828
-0.017898559570,-0.411514282227,0.183502197266,-0.008178710938,0.028976440430,0.069686889648
-0.007461547852,-0.350784301758,0.207702636719,0.000961303711,0.038604736328,0.086776733398
-0.018142700195,-0.248886108398,0.226669311523,0.001785278320,0.043991088867,0.089950561523
-0.026229858398,-0.222015380859,0.222274780273,0.005294799805,0.050018310547,0.092941284180
-0.060256958008,-0.156112670898,0.178680419922,0.014389038086,0.062774658203,0.093185424805
-0.079498291016,-0.132019042969,0.151580810547,0.019912719727,0.066940307617,0.092315673828
-0.100830078125,-0.075683593750,0.109878540039,0.012222290039,0.071166992188,0.090423583984
-0.080078125000,-0.080322265625,0.113052368164,0.016906738281,0.072189331055,0.088668823242
-0.102630615234,-0.007888793945,0.096557617188,0.035476684570,0.069808959961,0.090576171875
-0.099380493164,0.012863159180,0.078094482422,0.033538818359,0.068725585938,0.087738037109
-0.089019775391,0.006805419922,0.052352905273,0.032165527344,0.064971923828,0.078613281250
-0.090072631836,0.029586791992,0.038299560547,0.029830932617,0.062957763672,0.077072143555
-0.078720092773,0.105010986328,0.006057739258,0.025039672852,0.060272216797,0.071197509766
-0.073242187500,0.133590698242,-0.009124755859,0.026733398438,0.057189941406,0.063583374023
-0.062988281250,0.153320312500,-0.023895263672,0.031829833984,0.047042846680,0.043380737305
-0.053634643555,0.170471191406,-0.044616699219,0.036697387695,0.040039062500,0.032730102539
-0.053558349609,0.179428100586,-0.053192138672,0.041549682617,0.033279418945,0.012481689453
-0.062484741211,0.196044921875,-0.079254150391,0.045379638672,0.022888183594,-0.004608154297
-0.059829711914,0.199661254883,-0.100265502930,0.048934936523,0.017379760742,-0.015792846680
-0.062057495117,0.179855346680,-0.140594482422,0.046676635742,0.003692626953,-0.029800415039
-0.058044433594,0.187622070313,-0.157440185547,0.039367675781,-0.004104614258,-0.032196044922
-0.046676635742,0.203750610352,-0.142501831055,0.027359008789,-0.023483276367,-0.043014526367
-0.037048339844,0.191833496094,-0.128036499023,0.019165039063,-0.030120849609,-0.050308227539
0.001525878906,0.176773071289,-0.073669433594,-0.002319335938,-0.040771484375,-0.054046630859
0.018203735352,0.157699584961,-0.037582397461,-0.009475708008,-0.042938232422,-0.054031372070
0.034576416016,0.108337402344,0.008575439453,-0.009140014648,-0.037887573242,-0.054260253906
0.039413452148,0.084167480469,0.027389526367,-0.011260986328,-0.033691406250,-0.053634643555
0.040420532227,0.043746948242,0.048522949219,-0.017837524414,-0.023300170898,-0.051528930664
0.037216186523,0.031463623047,0.049530029297,-0.020111083984,-0.018005371094,-0.050003051758
0.028350830078,0.016998291016,0.041091918945,-0.022537231445,-0.009490966797,-0.046646118164
0.018981933594,0.005874633789,0.031524658203,-0.023834228516,-0.006332397461,-0.044906616211
0.000305175781,-0.014923095703,0.019271850586,-0.028152465820,-0.002716064453,-0.040222167969
-0.004867553711,-0.029418945313,0.011871337891,-0.028793334961,-0.001663208008,-0.037475585938
-0.007339477539,-0.063201904297,0.037796020508,-0.034591674805,-0.001525878906,-0.030197143555
0.010223388672,-0.097030639648,0.060974121094,-0.039703369141,-0.001663208008,-0.027511596680
0.068145751953,-0.107254028320,0.138153076172,-0.069778442383,-0.000686645508,-0.017852783203
0.107650756836,-0.027221679688,0.104537963867,-0.082336425781,0.001068115234,-0.018875122070
0.104476928711,-0.108642578125,0.171768188477,-0.034820556641,-0.021179199219,-0.043960571289
0.097534179688,-0.112411499023,0.136047363281,-0.029708862305,-0.014892578125,-0.043930053711
0.069931030273,-0.121749877930,0.087295532227,-0.027313232422,-0.008117675781,-0.042449951172
