ax,ay,az,gx,gy,gz
0.125106811523,-0.071990966797,0.111022949219,0.007339477539,-0.005371093750,-0.029235839844
0.129394531250,-0.103698730469,0.192337036133,0.004119873047,-0.002609252930,-0.035247802734
0.114730834961,-0.235855102539,0.200057983398,0.008529663086,0.027999877930,-0.039138793945
0.105575561523,-0.291259765625,0.122390747070,0.015899658203,0.046585083008,-0.031997680664
0.089187622070,-0.279144287109,-0.011932373047,0.022567749023,0.065475463867,-0.004669189453
0.096481323242,-0.308578491211,-0.041595458984,0.020782470703,0.066818237305,0.005645751953
0.061874389648,-0.411376953125,-0.165191650391,0.022628784180,0.073913574219,0.029739379883
0.029190063477,-0.378982543945,-0.264236450195,0.026138305664,0.071945190430,0.053741455078
0.005966186523,-0.297225952148,-0.327270507813,0.017745971680,0.039093017578,0.101165771484
-0.035095214844,-0.156463623047,-0.330871582031,0.010375976563,0.022003173828,0.111907958984
-0.064590454102,-0.121948242188,-0.323989868164,0.004745483398,-0.006942749023,0.117950439453
-0.116302490234,-0.064285278320,-0.295623779297,0.009170532227,-0.019012451172,0.119537353516
-0.129074096680,-0.021209716797,-0.265304565430,0.012145996094,-0.046157836914,0.129440307617
-0.155761718750,0.082763671875,-0.126449584961,-0.000396728516,-0.051513671875,0.134582519531
-0.149826049805,0.177795410156,-0.141662597656,0.006240844727,-0.044754028320,0.136840820313
-0.124282836914,0.244354248047,-0.051467895508,-0.015960693359,-0.043640136719,0.126922607422
-0.118713378906,0.245376586914,-0.026824951172,-0.024566650391,-0.035430908203,0.119613647461
-0.101516723633,0.257659912109,-0.080657958984,-0.029678344727,-0.005630493164,0.094680786133
-0.094680786133,0.217041015625,-0.048736572266,-0.066040039063,-0.001251220703,0.060913085938
-0.134521484375,0.347488403320,-0.179824829102,-0.099899291992,0.038299560547,0.049621582031
-0.099914550781,0.318679809570,-0.354568481445,0.002304077148,0.057647705078,0.020843505859
-0.179428100586,0.204345703125,-0.356689453125,0.051223754883,-0.030929565430,-0.043197631836
-0.196777343750,0.149169921875,-0.250213623047,0.052886962891,-0.072097778320,-0.063461303711
-0.238098144531,0.009231567383,-0.044219970703,0.032348632813,-0.121932983398,-0.096786499023
-0.270202636719,-0.030014038086,0.046813964844,0.048843383789,-0.136032104492,-0.109161376953
-0.290191650391,-0.124038696289,0.146224975586,0.101638793945,-0.128311157227,-0.136276245117
-0.249877929688,-0.197937011719,0.150100708008,0.114471435547,-0.113311767578,-0.150756835938
-0.179214477539,-0.397109985352,0.100433349609,0.110290527344,-0.083511352539,-0.172058105469
-0.123153686523,-0.454666137695,0.122192382813,0.090850830078,-0.078079223633,-0.140991210938
-0.078338623047,-0.244216918945,0.141128540039,0.074874877930,-0.058410644531,-0.081741333008
-0.088546752930,-0.122131347656,0.108444213867,0.064743041992,-0.044204711914,-0.070266723633
-0.110839843750,-0.033172607422,0.076431274414,0.042221069336,-0.027633666992,-0.086120605469
-0.136611938477,-0.038925170898,0.069305419922,0.031524658203,-0.025543212891,-0.100784301758
-0.163177490234,-0.154541015625,0.056793212891,0.018020629883,-0.022827148438,-0.119644165039
-0.170150756836,-0.180694580078,0.064376831055,0.005355834961,-0.023300170898,-0.114776611328
-0.175720214844,-0.204452514648,0.113449096680,0.009094238281,-0.027679443359,-0.101562500000
-0.166381835938,-0.230300903320,0.151550292969,0.020309448242,-0.027770996094,-0.102218627930
-0.188919067383,-0.372833251953,0.283645629883,0.052566528320,-0.025482177734,-0.120590209961
-0.211059570313,-0.474441528320,0.312957763672,0.061935424805,-0.010787963867,-0.122253417969
-0.204406738281,-0.445251464844,0.115371704102,0.068328857422,0.041458129883,-0.064102172852
-0.200103759766,-0.258941650391,0.063446044922,0.075454711914,0.049102783203,-0.026290893555
-0.188842773438,-0.153976440430,-0.024047851563,0.085067749023,0.036529541016,-0.009796142578
-0.125122070313,-0.125915527344,0.003692626953,0.091308593750,0.027664184570,-0.018493652344
-0.127563476563,-0.144805908203,0.028015136719,0.074005126953,0.037521362305,-0.024230957031
-0.123947143555,-0.158584594727,0.011657714844,0.105484008789,0.034164428711,-0.026245117188
-0.154418945313,-0.165786743164,-0.001190185547,0.100875854492,0.038604736328,-0.020553588867
-0.137741088867,-0.198333740234,-0.046142578125,0.070114135742,0.061294555664,-0.008529663086
-0.141418457031,-0.192428588867,-0.094436645508,0.030471801758,0.078552246094,0.002395629883
-0.159729003906,-0.301223754883,-0.150268554688,0.014312744141,0.086730957031,0.000625610352
-0.154678344727,-0.353347778320,-0.156250000000,0.020782470703,0.081054687500,0.004592895508
-0.151550292969,-0.332504272461,-0.140075683594,0.030380249023,0.070281982422,0.033691406250
-0.150833129883,-0.280990600586,-0.125503540039,0.035766601563,0.067306518555,0.047927856445
-0.143234252930,-0.229858398438,-0.164520263672,0.037734985352,0.069412231445,0.066177368164
-0.133865356445,-0.225479125977,-0.187606811523,0.030044555664,0.069000244141,0.073867797852
-0.137893676758,-0.230270385742,-0.197097778320,0.004135131836,0.065139770508,0.087051391602
-0.141815185547,-0.224960327148,-0.189697265625,-0.002990722656,0.062301635742,0.092346191406
-0.152847290039,-0.187820434570,-0.201782226563,-0.002426147461,0.057693481445,0.099105834961
-0.142501831055,-0.169296264648,-0.245101928711,0.005645751953,0.053970336914,0.099822998047
-0.126373291016,-0.144500732422,-0.256973266602,0.017532348633,0.031539916992,0.099533081055
-0.122726440430,-0.154708862305,-0.231964111328,0.019577026367,0.019195556641,0.099502563477
-0.115295410156,-0.149383544922,-0.201187133789,0.031127929688,0.003677368164,0.103775024414
-0.116806030273,-0.110534667969,-0.183898925781,0.030746459961,-0.002471923828,0.111541748047
-0.109893798828,-0.042098999023,-0.159942626953,0.023391723633,-0.008926391602,0.122909545898
-0.085861206055,0.037063598633,-0.144500732422,0.018783569336,-0.009460449219,0.118927001953
-0.065979003906,0.054473876953,-0.131912231445,0.008285522461,-0.007339477539,0.100158691406
-0.035232543945,0.069305419922,-0.140838623047,0.008178710938,-0.005844116211,0.087860107422
-0.025146484375,0.073837280273,-0.158981323242,0.007629394531,-0.006927490234,0.064361572266
-0.003051757813,0.086074829102,-0.147171020508,0.018569946289,-0.020919799805,0.051605224609
0.009231567383,0.072921752930,-0.119308471680,0.024398803711,-0.028823852539,0.026641845703
0.019989013672,0.031661987305,-0.025177001953,0.014358520508,-0.038711547852,0.018417358398
0.024948120117,0.003036499023,-0.008193969727,0.011093139648,-0.036026000977,0.013015747070
0.034591674805,-0.044525146484,-0.039932250977,0.009613037109,-0.024276733398,0.010650634766
0.036926269531,-0.036361694336,-0.045639038086,0.007339477539,-0.023910522461,0.014266967773
0.036697387695,0.012725830078,-0.011260986328,-0.003005981445,-0.027770996094,0.019195556641
0.039062500000,0.027282714844,0.013061523438,-0.006591796875,-0.027709960938,0.016510009766
0.053588867188,0.024627685547,0.023056030273,-0.005233764648,-0.020187377930,0.004821777344
0.057037353516,0.015426635742,0.019393920898,-0.004135131836,-0.017089843750,-0.000488281250
0.066436767578,-0.023590087891,0.043365478516,-0.012008666992,-0.017181396484,-0.007476806641
0.067520141602,-0.053054809570,0.051879882813,-0.013412475586,-0.016387939453,-0.009597778320
0.071166992188,-0.076278686523,0.039474487305,-0.002639770508,-0.015655517578,-0.005294799805
0.071289062500,-0.058807373047,0.043945312500,-0.004364013672,-0.016540527344,-0.000656127930
0.072692871094,-0.016540527344,0.071838378906,-0.005416870117,-0.017395019531,0.001998901367
0.076034545898,-0.021087646484,0.072006225586,-0.005416870117,-0.014526367188,-0.001312255859
0.079391479492,-0.037734985352,0.052261352539,-0.004776000977,-0.007888793945,-0.008193969727
0.085449218750,-0.062271118164,0.050369262695,-0.002532958984,-0.005935668945,-0.009735107422
0.090316772461,-0.086868286133,0.050033569336,0.006072998047,-0.004074096680,-0.010894775391
0.094909667969,-0.094650268555,0.043853759766,0.007202148438,-0.001983642578,-0.009414672852
0.096237182617,-0.092071533203,0.034759521484,0.010055541992,0.000274658203,-0.004974365234
0.097778320313,-0.085342407227,0.016387939453,0.009490966797,0.001205444336,-0.003723144531
0.098129272461,-0.080810546875,0.009536743164,0.008605957031,0.001708984375,-0.002929687500
0.102157592773,-0.080444335938,0.012954711914,0.005554199219,0.001571655273,-0.002731323242
0.101303100586,-0.089096069336,0.011062622070,0.004226684570,0.002136230469,-0.003234863281
0.098358154297,-0.096343994141,-0.020782470703,0.002807617188,0.005203247070,-0.001571655273
0.098999023438,-0.091537475586,-0.027618408203,0.001174926758,0.004669189453,-0.000183105469
0.101730346680,-0.077880859375,-0.017303466797,-0.002120971680,0.001907348633,0.001480102539
0.101684570313,-0.080429077148,-0.017791748047,-0.002883911133,0.001708984375,0.001068115234
0.101394653320,-0.087493896484,-0.028747558594,-0.006271362305,0.002288818359,0.000839233398
0.101409912109,-0.086624145508,-0.028701782227,-0.007843017578,0.001586914063,0.001541137695
0.099670410156,-0.080978393555,-0.028488159180,-0.009094238281,0.000457763672,0.002700805664
0.102386474609,-0.080291748047,-0.021896362305,-0.009704589844,-0.000091552734,0.003067016602
0.103057861328,-0.085144042969,-0.017135620117,-0.005920410156,0.000137329102,0.003143310547
0.102706909180,-0.079330444336,-0.023559570313,-0.006042480469,0.001296997070,0.004196166992
0.102264404297,-0.065856933594,-0.026214599609,-0.004226684570,0.000915527344,0.005218505859
0.102630615234,-0.059478759766,-0.024383544922,-0.004806518555,0.000930786133,0.005004882813

0.075347900391,-0.199966430664,0.039245605469,0.030090332031,-0.047760009766,-0.000671386719
0.069915771484,-0.225051879883,0.065521240234,0.025543212891,-0.057250976563,0.001541137695
0.042800903320,-0.251907348633,0.159545898438,0.029739379883,-0.074081420898,0.006607055664
0.031860351563,-0.242614746094,0.297485351563,0.022308349609,-0.082504272461,0.011108398438
0.030410766602,-0.244003295898,0.459518432617,0.023239135742,-0.060363769531,0.010452270508
0.012130737305,-0.313415527344,0.468811035156,0.020858764648,-0.020599365234,0.013763427734
-0.000564575195,-0.313873291016,0.321640014648,0.034729003906,0.013732910156,0.022277832031
-0.031036376953,-0.264999389648,0.219955444336,0.058761596680,0.021804809570,0.037155151367
-0.036529541016,-0.228530883789,0.247314453125,0.050857543945,0.019607543945,0.044586181641
-0.053436279297,-0.215362548828,0.216476440430,0.064147949219,0.031814575195,0.052536010742
-0.055465698242,-0.232650756836,0.174301147461,0.057998657227,0.036514282227,0.055877685547
-0.082199096680,-0.174209594727,0.187316894531,-0.002456665039,0.033889770508,0.066238403320
-0.112747192383,-0.157028198242,0.205932617188,-0.008377075195,0.036071777344,0.067382812500
-0.127975463867,-0.146972656250,0.204086303711,-0.005889892578,0.061798095703,0.075637817383
-0.150024414063,-0.085906982422,0.111495971680,0.015289306641,0.073226928711,0.082763671875
-0.158187866211,0.004714965820,0.070404052734,0.019622802734,0.077209472656,0.090560913086
-0.156799316406,0.223831176758,0.061233520508,0.014526367188,0.066223144531,0.091934204102
-0.140945434570,0.235992431641,0.076766967773,0.002883911133,0.060150146484,0.084259033203
-0.129821777344,0.124633789063,-0.052078247070,-0.004821777344,0.067581176758,0.009094238281
-0.116668701172,0.022384643555,-0.132843017578,-0.003433227539,0.069000244141,-0.007949829102
-0.106658935547,0.001312255859,-0.192611694336,0.009552001953,0.057525634766,0.001907348633
-0.076934814453,0.053604125977,-0.168075561523,0.014450073242,0.045913696289,0.007400512695
-0.071487426758,0.088470458984,-0.116546630859,0.021087646484,0.036346435547,0.008972167969
-0.063705444336,0.092834472656,-0.037063598633,0.023788452148,0.030914306641,0.002548217773
-0.054962158203,0.074432373047,-0.004089355469,0.019119262695,0.030899047852,-0.001251220703
-0.047592163086,0.112625122070,0.014968872070,0.008605957031,0.036239624023,-0.003967285156
-0.048980712891,0.124526977539,0.024017333984,0.003906250000,0.040237426758,-0.008453369141
-0.057464599609,0.119812011719,0.068969726563,-0.004837036133,0.049606323242,-0.021270751953
-0.061309814453,0.108306884766,0.064453125000,-0.013092041016,0.057983398438,-0.026840209961
-0.067977905273,0.096740722656,0.026382446289,-0.021514892578,0.080780029297,-0.035247802734
-0.085418701172,0.088958740234,-0.035858154297,-0.039459228516,0.084747314453,-0.039657592773
-0.084518432617,0.096359252930,-0.049484252930,-0.048751831055,0.087753295898,-0.044647216797
-0.099197387695,0.089630126953,-0.116210937500,-0.054992675781,0.093582153320,-0.060104370117
-0.101776123047,0.053085327148,-0.160964965820,-0.055038452148,0.091827392578,-0.070678710938
-0.111434936523,0.029602050781,-0.197067260742,-0.051864624023,0.079040527344,-0.081726074219
-0.107299804688,0.029342651367,-0.232070922852,-0.037384033203,0.072937011719,-0.085464477539
-0.122528076172,0.007934570313,-0.286010742188,-0.042083740234,0.059555053711,-0.094039916992
-0.136993408203,0.019378662109,-0.331314086914,-0.041946411133,0.053359985352,-0.097213745117
-0.156234741211,-0.009262084961,-0.368591308594,-0.049087524414,0.028350830078,-0.115463256836
-0.191986083984,-0.145507812500,-0.378112792969,-0.052124023438,0.010589599609,-0.122497558594
-0.207641601563,-0.197631835938,-0.356277465820,-0.051391601563,-0.008804321289,-0.117340087891
-0.213470458984,-0.254196166992,-0.261352539063,-0.054458618164,-0.047836303711,-0.109848022461
-0.206771850586,-0.274169921875,-0.202728271484,-0.059387207031,-0.061660766602,-0.104141235352
-0.211944580078,-0.291244506836,-0.106643676758,-0.067550659180,-0.074645996094,-0.100082397461
-0.203918457031,-0.353073120117,-0.061325073242,-0.070831298828,-0.077499389648,-0.085769653320
-0.196594238281,-0.386154174805,-0.041885375977,-0.060653686523,-0.070709228516,-0.048614501953
-0.198837280273,-0.391342163086,-0.046463012695,-0.057174682617,-0.066284179688,-0.033294677734
-0.185653686523,-0.429946899414,-0.000503540039,-0.042343139648,-0.069976806641,-0.011627197266
-0.190383911133,-0.396102905273,0.020233154297,-0.028701782227,-0.069595336914,0.003845214844
-0.191329956055,-0.280731201172,-0.006591796875,-0.040832519531,-0.058395385742,0.031250000000
-0.192367553711,-0.264312744141,-0.028533935547,-0.004470825195,-0.063400268555,0.032272338867
-0.193405151367,-0.342956542969,-0.001037597656,-0.012557983398,-0.062896728516,0.031799316406
-0.196548461914,-0.332580566406,-0.014541625977,-0.013198852539,-0.058425903320,0.040985107422
-0.183837890625,-0.275527954102,0.040710449219,-0.027374267578,-0.063873291016,0.058303833008
-0.168609619141,-0.259063720703,0.077728271484,-0.020980834961,-0.064407348633,0.061157226563
-0.147796630859,-0.236785888672,0.110458374023,-0.006088256836,-0.052108764648,0.063476562500
-0.114715576172,-0.216613769531,0.124038696289,-0.003784179688,-0.041290283203,0.063385009766
-0.099838256836,-0.206832885742,0.113037109375,-0.003326416016,-0.030517578125,0.068420410156
-0.082778930664,-0.181137084961,0.074066162109,0.006561279297,-0.016799926758,0.068878173828
-0.074447631836,-0.188415527344,0.064178466797,0.013427734375,-0.014541625977,0.068450927734
-0.076202392578,-0.215744018555,0.066253662109,0.038681030273,-0.015548706055,0.069229125977
-0.082672119141,-0.186477661133,0.057739257813,0.051315307617,-0.013778686523,0.076354980469
-0.071914672852,-0.085128784180,0.034103393555,0.050323486328,-0.010513305664,0.092864990234
-0.060012817383,-0.035781860352,0.031631469727,0.044036865234,-0.009857177734,0.095809936523
-0.032562255859,0.026489257813,0.046401977539,0.039657592773,-0.011123657227,0.083831787109
-0.017440795898,0.052001953125,0.028976440430,0.039016723633,-0.006164550781,0.074584960938
-0.006423950195,0.062774658203,-0.005157470703,0.031967163086,0.004989624023,0.050674438477
0.015533447266,0.014709472656,-0.027191162109,0.032043457031,0.002899169922,0.038497924805
0.012939453125,-0.012664794922,-0.023315429688,0.026565551758,0.001556396484,0.031112670898
0.027389526367,0.022674560547,-0.018218994141,0.033599853516,-0.001037597656,0.030685424805
0.030838012695,0.026611328125,-0.033203125000,0.024414062500,0.002120971680,0.028427124023
0.030426025391,0.060150146484,-0.072891235352,0.020614624023,0.002990722656,0.023147583008
0.033035278320,0.076599121094,-0.085586547852,0.021575927734,-0.000213623047,0.016754150391
0.056060791016,0.073898315430,-0.090194702148,0.014862060547,-0.010238647461,-0.002822875977
0.100448608398,0.022323608398,-0.056701660156,-0.001388549805,-0.017166137695,-0.009033203125
0.102447509766,0.004348754883,-0.028457641602,-0.018127441406,-0.016738891602,-0.013931274414
0.086639404297,-0.007904052734,-0.022888183594,-0.020904541016,-0.013717651367,-0.015060424805
0.056213378906,-0.000350952148,-0.054702758789,-0.016540527344,-0.009017944336,-0.015335083008
0.041778564453,0.009323120117,-0.081390380859,-0.010131835938,-0.010360717773,-0.014297485352
0.057403564453,0.009933471680,-0.097183227539,-0.016769409180,-0.009735107422,-0.014205932617
0.076370239258,-0.023437500000,-0.115112304688,-0.013244628906,-0.017730712891,-0.017242431641
0.114501953125,-0.064651489258,-0.098007202148,-0.009368896484,-0.026855468750,-0.015365600586
0.101104736328,-0.069519042969,-0.025375366211,-0.043624877930,-0.034744262695,0.005035400391
0.086685180664,-0.036346435547,-0.024383544922,-0.066040039063,-0.030776977539,0.019409179688
0.097946166992,0.003479003906,-0.081481933594,-0.122406005859,-0.010681152344,0.036163330078
0.103088378906,-0.041366577148,-0.116516113281,-0.128128051758,-0.003646850586,0.033340454102
0.089004516602,-0.079803466797,-0.097793579102,-0.129257202148,-0.002273559570,0.038131713867
0.085144042969,-0.036697387695,-0.024261474609,-0.147415161133,0.003112792969,0.044998168945
0.099273681641,-0.032470703125,-0.022689819336,-0.113342285156,0.018692016602,0.035232543945
0.121078491211,0.017471313477,0.010589599609,-0.079864501953,0.016616821289,0.028488159180
0.122192382813,0.000045776367,0.016250610352,-0.073944091797,0.019119262695,0.018295288086
0.131164550781,-0.081542968750,-0.026489257813,-0.047912597656,0.023757934570,0.002288818359
0.145187377930,-0.080017089844,0.005355834961,-0.056091308594,0.017410278320,0.005630493164
0.123855590820,-0.029235839844,0.078750610352,-0.087142944336,0.006103515625,0.014678955078
0.089736938477,-0.035049438477,0.120452880859,-0.084518432617,0.005798339844,0.012756347656
0.102828979492,-0.038009643555,0.094116210938,-0.056640625000,0.016571044922,0.004028320313
0.108505249023,-0.071502685547,-0.037918090820,-0.037475585938,0.016448974609,-0.005859375000
0.100524902344,-0.089508056641,-0.086578369141,0.004959106445,0.007888793945,-0.020370483398
0.104995727539,-0.113998413086,-0.002227783203,-0.007904052734,-0.013565063477,-0.031845092773
0.100585937500,-0.128631591797,0.032196044922,-0.018493652344,-0.011764526367,-0.033874511719
0.108932495117,-0.094253540039,0.022796630859,0.027770996094,-0.006149291992,-0.038879394531
0.117660522461,-0.096878051758,0.048889160156,0.029022216797,-0.009185791016,-0.042709350586
0.094879150391,-0.183700561523,0.081054687500,0.005920410156,-0.004776000977,-0.044204711914
0.079727172852,-0.199371337891,0.057785034180,-0.004913330078,0.001129150391,-0.035095214844

-0.024444580078,-0.213882446289,-0.100219726563,0.035339355469,-0.046554565430,-0.053039550781
-0.043914794922,-0.240585327148,-0.101760864258,0.034851074219,-0.057952880859,-0.050384521484
-0.075592041016,-0.405532836914,-0.033081054688,0.021163940430,-0.079696655273,-0.051666259766
-0.082275390625,-0.499938964844,0.016738891602,0.018035888672,-0.088500976563,-0.048355102539
-0.101425170898,-0.499938964844,0.079101562500,0.037002563477,-0.095611572266,-0.002944946289
-0.112762451172,-0.499938964844,0.123352050781,0.046707153320,-0.095977783203,0.030776977539
-0.129272460938,-0.443283081055,0.221435546875,0.065475463867,-0.087539672852,0.078506469727
-0.144454956055,-0.438674926758,0.267669677734,0.061340332031,-0.077331542969,0.094116210938
-0.231033325195,-0.458129882812,0.379135131836,0.039810180664,-0.058990478516,0.126266479492
-0.305084228516,-0.308441162109,0.422714233398,0.028839111328,-0.045059204102,0.156768798828
-0.422378540039,0.134002685547,0.451431274414,0.003051757813,0.002304077148,0.208724975586
-0.372299194336,0.209106445313,0.348968505859,-0.017608642578,0.045471191406,0.210617065430
-0.312393188477,0.275787353516,0.167800903320,-0.078674316406,0.161529541016,0.108032226563
-0.241210937500,0.051940917969,-0.326934814453,-0.089981079102,0.181182861328,0.057647705078
-0.210723876953,-0.100036621094,-0.442749023437,-0.081451416016,0.160766601563,0.027862548828
-0.142333984375,-0.086471557617,-0.361923217773,-0.050140380859,0.072586059570,0.049331665039
-0.111572265625,0.055664062500,-0.305801391602,-0.036209106445,0.046035766602,0.072296142578
-0.106597900391,0.246154785156,-0.269332885742,-0.057174682617,0.022003173828,0.086929321289
-0.094680786133,0.304687500000,-0.203765869141,-0.076919555664,0.005401611328,0.080123901367
-0.069366455078,0.361038208008,-0.003570556641,-0.096572875977,-0.018371582031,0.044281005859
-0.067474365234,0.375808715820,0.066757202148,-0.078231811523,-0.018249511719,0.017517089844
-0.148132324219,0.365966796875,0.087661743164,-0.046524047852,0.005966186523,-0.058593750000
-0.180389404297,0.324096679688,0.089477539063,-0.060165405273,0.020874023438,-0.094177246094
-0.266250610352,0.200531005859,0.026718139648,-0.077026367188,0.046951293945,-0.151580810547
-0.300216674805,0.080093383789,-0.051467895508,-0.080581665039,0.054168701172,-0.179748535156
-0.324920654297,-0.091613769531,-0.079132080078,-0.089691162109,0.032348632813,-0.205017089844
-0.321868896484,-0.156585693359,-0.046310424805,-0.085754394531,0.017623901367,-0.205551147461
-0.272369384766,-0.225830078125,-0.065811157227,-0.062850952148,0.011871337891,-0.191589355469
-0.260513305664,-0.265762329102,-0.119293212891,-0.055618286133,0.013275146484,-0.186691284180
-0.252243041992,-0.381988525391,-0.186019897461,-0.071289062500,-0.005996704102,-0.157409667969
-0.240722656250,-0.434722900391,-0.181793212891,-0.072937011719,-0.023193359375,-0.131591796875
-0.236145019531,-0.454101562500,-0.082412719727,-0.074264526367,-0.055343627930,-0.087173461914
-0.215881347656,-0.454711914062,-0.067092895508,-0.064102172852,-0.060165405273,-0.065322875977
-0.204620361328,-0.358184814453,-0.153579711914,-0.056045532227,-0.053192138672,-0.017700195313
-0.212036132813,-0.295333862305,-0.163436889648,-0.071731567383,-0.056671142578,0.003936767578
-0.234054565430,-0.268600463867,-0.116516113281,-0.059936523438,-0.082565307617,0.023101806641
-0.258193969727,-0.291397094727,-0.068496704102,-0.046569824219,-0.096115112305,0.027023315430
-0.292282104492,-0.347213745117,0.025238037109,-0.016586303711,-0.112411499023,0.041229248047
-0.303543090820,-0.391723632813,0.062713623047,-0.009597778320,-0.113815307617,0.050369262695
-0.345306396484,-0.499938964844,0.172821044922,-0.005859375000,-0.111907958984,0.075500488281
-0.369094848633,-0.499938964844,0.218566894531,-0.001754760742,-0.106109619141,0.101577758789
-0.425750732422,-0.346786499023,0.223770141602,0.010787963867,-0.079910278320,0.170349121094
-0.423614501953,-0.209365844727,0.214416503906,0.011230468750,-0.066528320313,0.194122314453
-0.357330322266,-0.031478881836,0.268707275391,-0.002044677734,-0.042358398438,0.203292846680
-0.300994873047,0.030746459961,0.291061401367,-0.015670776367,-0.022537231445,0.198944091797
-0.197723388672,0.148239135742,0.257522583008,-0.053085327148,0.040298461914,0.172912597656
-0.156097412109,0.152954101563,0.168273925781,-0.027496337891,0.066619873047,0.143569946289
-0.087341308594,0.136871337891,0.052474975586,-0.082229614258,0.096481323242,0.084121704102
-0.053649902344,0.084579467773,-0.017044067383,-0.083129882813,0.102996826172,0.054595947266
-0.037673950195,0.015792846680,-0.135696411133,-0.022338867188,0.088043212891,0.018737792969
-0.010513305664,-0.054565429688,-0.152435302734,0.004531860352,0.068832397461,0.015213012695
0.001998901367,-0.056503295898,-0.137603759766,0.027404785156,0.038848876953,0.017227172852
0.018920898438,-0.032272338867,-0.144744873047,0.045288085938,0.032775878906,0.017333984375
0.031066894531,-0.012451171875,-0.171279907227,0.063858032227,0.027313232422,0.012634277344
0.053710937500,0.020950317383,-0.180953979492,0.071685791016,0.007904052734,0.008300781250
0.057357788086,0.018325805664,-0.148239135742,0.060302734375,-0.002548217773,0.000610351563
0.065246582031,-0.018615722656,-0.084777832031,0.036560058594,-0.007980346680,-0.012695312500
0.070968627930,-0.045379638672,-0.070953369141,0.021957397461,-0.003173828125,-0.015213012695
0.080825805664,-0.084335327148,-0.071975708008,-0.011505126953,0.009658813477,-0.011398315430
0.080368041992,-0.086044311523,-0.085998535156,-0.022888183594,0.013916015625,-0.007461547852
0.080535888672,-0.070175170898,-0.102569580078,-0.036911010742,0.012542724609,-0.001907348633
0.080596923828,-0.065505981445,-0.099548339844,-0.042205810547,0.009429931641,-0.001586914063
0.083694458008,-0.071685791016,-0.080551147461,-0.043441772461,0.002502441406,-0.003509521484
0.084274291992,-0.074554443359,-0.068939208984,-0.043838500977,0.000503540039,-0.004257202148
0.085327148438,-0.085952758789,-0.052490234375,-0.042617797852,-0.000823974609,-0.005493164063
0.086105346680,-0.098358154297,-0.047378540039,-0.042373657227,-0.001083374023,-0.005752563477
0.082977294922,-0.120819091797,-0.042205810547,-0.046539306641,-0.001068115234,-0.001358032227
0.079162597656,-0.117553710938,-0.039871215820,-0.049407958984,-0.000961303711,0.003616333008
0.077682495117,-0.091903686523,-0.033218383789,-0.056243896484,0.000045776367,0.011459350586
0.078338623047,-0.086578369141,-0.028579711914,-0.060272216797,0.001419067383,0.011795043945
0.080642700195,-0.084167480469,-0.024444580078,-0.060348510742,0.003662109375,0.008804321289
0.083312988281,-0.091125488281,-0.017837524414,-0.059387207031,0.003753662109,0.006134033203
0.080825805664,-0.097915649414,-0.009994506836,-0.055145263672,0.003265380859,0.000152587891
0.082641601563,-0.103897094727,0.001159667969,-0.043518066406,0.001358032227,0.004577636719
0.085968017578,-0.102722167969,0.005645751953,-0.038497924805,0.001281738281,0.005096435547
0.084442138672,-0.100051879883,0.014739990234,-0.028945922852,0.002151489258,0.004058837891
0.083419799805,-0.097640991211,0.018112182617,-0.025375366211,0.002990722656,0.003662109375
0.082138061523,-0.093338012695,0.012344360352,-0.021057128906,0.006179809570,0.002349853516
0.081985473633,-0.092330932617,0.005645751953,-0.019470214844,0.007293701172,0.001434326172
0.081497192383,-0.090332031250,-0.005813598633,-0.011108398438,0.006454467773,-0.000167846680
0.081054687500,-0.090332031250,-0.006408691406,-0.005813598633,0.004684448242,-0.000961303711
0.080993652344,-0.089065551758,0.002975463867,0.000823974609,0.002197265625,-0.002365112305
0.081054687500,-0.089553833008,0.007476806641,0.002624511719,0.002304077148,-0.003387451172
0.080612182617,-0.099884033203,-0.001190185547,0.008499145508,0.003845214844,-0.005722045898
0.079132080078,-0.105941772461,-0.002685546875,0.012832641602,0.003234863281,-0.006057739258
0.078628540039,-0.108871459961,-0.002288818359,0.024566650391,0.001098632813,-0.005340576172
0.076766967773,-0.110000610352,-0.006576538086,0.032043457031,0.000335693359,-0.005096435547
0.074859619141,-0.107543945313,-0.011627197266,0.038574218750,-0.000488281250,-0.004684448242
0.064712524414,-0.106796264648,-0.027893066406,0.047134399414,-0.002944946289,-0.005386352539
0.074737548828,-0.104141235352,-0.038696289063,0.053558349609,-0.005325317383,-0.005874633789
0.075576782227,-0.093048095703,-0.031295776367,0.053573608398,-0.012054443359,-0.005599975586
0.072784423828,-0.090377807617,-0.021804809570,0.052185058594,-0.014221191406,-0.006530761719
0.069839477539,-0.088119506836,-0.010848999023,0.040618896484,-0.012222290039,-0.008666992188
0.069671630859,-0.096862792969,-0.012771606445,0.033172607422,-0.009338378906,-0.010421752930
0.070266723633,-0.117462158203,-0.019409179688,0.019638061523,-0.004226684570,-0.010833740234
0.070541381836,-0.125564575195,-0.021392822266,0.013122558594,-0.002273559570,-0.009338378906
0.069854736328,-0.129272460938,-0.015747070313,0.004150390625,0.000259399414,-0.004486083984
0.068618774414,-0.122955322266,-0.014907836914,0.000885009766,0.002761840820,-0.001892089844
0.081695556641,-0.110855102539,-0.038238525391,-0.002975463867,0.007537841797,0.000244140625
0.077941894531,-0.116806030273,-0.061233520508,-0.007507324219,0.008453369141,0.000488281250
0.060989379883,-0.093673706055,-0.055999755859,-0.017089843750,0.002990722656,0.004394531250
0.059829711914,-0.074172973633,-0.053314208984,-0.021453857422,0.001220703125,0.005676269531
0.066131591797,-0.059722900391,-0.070098876953,-0.028869628906,0.000473022461,0.001327514648
0.064239501953,-0.075180053711,-0.050018310547,-0.027923583984,-0.002777099609,-0.003616333008

0.160339355469,-0.191574096680,0.051925659180,0.032394409180,0.002197265625,-0.037719726563
0.165161132813,-0.246978759766,0.106521606445,0.028793334961,0.003494262695,-0.045928955078
0.146911621094,-0.351181030273,0.130676269531,0.044982910156,0.024368286133,-0.031021118164
0.135223388672,-0.330368041992,0.105697631836,0.059234619141,0.039627075195,-0.013610839844
0.097305297852,-0.268417358398,0.096221923828,0.046356201172,0.063430786133,0.013519287109
0.064651489258,-0.263427734375,0.083206176758,0.026199340820,0.072906494141,0.021804809570
0.020599365234,-0.248596191406,0.069580078125,-0.031829833984,0.087127685547,0.046493530273
-0.157913208008,-0.071273803711,0.120468139648,-0.063171386719,0.096969604492,0.061248779297
-0.185958862305,0.001983642578,0.113983154297,-0.051956176758,0.121719360352,0.063903808594
-0.355941772461,-0.117599487305,-0.089447021484,-0.126266479492,0.222824096680,-0.004623413086
-0.398437500000,-0.338745117188,-0.258056640625,-0.101409912109,0.234329223633,-0.040954589844
-0.395355224609,-0.499938964844,-0.497146606445,-0.059143066406,0.184585571289,-0.015884399414
-0.354797363281,-0.398483276367,-0.499938964844,-0.044540405273,0.134109497070,0.033218383789
-0.284118652344,-0.090301513672,-0.396667480469,-0.006271362305,0.024368286133,0.072463989258
-0.237548828125,-0.079925537109,-0.274566650391,0.012924194336,-0.016601562500,0.062835693359
-0.210327148438,-0.095062255859,-0.106903076172,0.027496337891,-0.059204101563,0.058609008789
-0.210433959961,-0.082809448242,-0.091857910156,0.034500122070,-0.065399169922,0.062866210938
-0.245819091797,-0.088256835938,-0.114837646484,0.046722412109,-0.083541870117,0.066955566406
-0.260208129883,-0.081100463867,-0.096527099609,0.045898437500,-0.101776123047,0.072296142578
-0.291671752930,-0.016006469727,0.044662475586,0.029449462891,-0.142684936523,0.090316772461
-0.300811767578,0.027282714844,0.123046875000,0.017822265625,-0.153945922852,0.099273681641
-0.284484863281,0.119354248047,0.187850952148,0.003295898438,-0.149765014648,0.108581542969
-0.277664184570,0.158660888672,0.168655395508,0.004669189453,-0.142166137695,0.107452392578
-0.249267578125,0.203460693359,0.151489257813,-0.029647827148,-0.135360717773,0.107086181641
-0.215087890625,0.222839355469,0.149398803711,-0.037185668945,-0.136230468750,0.111083984375
-0.215881347656,0.348922729492,0.163177490234,0.018020629883,-0.146865844727,0.127593994141
-0.189956665039,0.445892333984,0.191055297852,0.043823242188,-0.152450561523,0.103820800781
-0.151229858398,0.479598999023,0.302413940430,0.057373046875,-0.154281616211,0.024093627930
-0.061523437500,0.381729125977,0.360534667969,0.050476074219,-0.146545410156,-0.018844604492
-0.057006835938,0.312438964844,0.419097900391,0.058456420898,-0.113250732422,-0.073593139648
-0.080200195313,0.172561645508,0.389221191406,0.080093383789,-0.086776733398,-0.091857910156
-0.119964599609,0.075424194336,0.349334716797,0.092285156250,-0.047012329102,-0.120254516602
-0.086547851563,-0.059112548828,0.331771850586,0.108459472656,-0.026458740234,-0.128417968750
-0.073684692383,-0.124710083008,0.283386230469,0.103591918945,-0.002716064453,-0.131546020508
-0.057449340820,-0.208908081055,0.296249389648,0.084594726563,0.015197753906,-0.126708984375
-0.065689086914,-0.279144287109,0.318298339844,0.074569702148,0.022750854492,-0.125579833984
-0.065979003906,-0.391998291016,0.382156372070,0.084152221680,0.042938232422,-0.082656860352
-0.091217041016,-0.397613525391,0.374954223633,0.112091064453,0.059936523438,-0.067718505859
-0.173675537109,-0.389038085938,0.274612426758,0.128097534180,0.112197875977,-0.043365478516
-0.202255249023,-0.342041015625,0.150451660156,0.133575439453,0.140243530273,-0.025772094727
-0.220260620117,-0.169021606445,-0.050582885742,0.161712646484,0.158355712891,0.013320922852
-0.231887817383,-0.130935668945,-0.104537963867,0.156982421875,0.155090332031,0.024871826172
-0.269577026367,-0.230880737305,-0.202346801758,0.075973510742,0.157211303711,0.032318115234
-0.300369262695,-0.302719116211,-0.242721557617,0.020538330078,0.163543701172,0.036300659180
-0.360534667969,-0.360656738281,-0.358901977539,-0.042984008789,0.169601440430,0.055068969727
-0.338714599609,-0.309509277344,-0.421203613281,-0.040664672852,0.154602050781,0.073318481445
-0.265045166016,-0.131698608398,-0.447372436523,-0.000183105469,0.082794189453,0.097824096680
-0.232223510742,-0.076278686523,-0.419219970703,0.010681152344,0.040359497070,0.096267700195
-0.166061401367,-0.079101562500,-0.244781494141,-0.021789550781,-0.029998779297,0.086547851563
-0.137451171875,-0.065322875977,-0.137329101563,-0.061294555664,-0.046203613281,0.088012695313
-0.091491699219,0.001037597656,0.006072998047,-0.094635009766,-0.039627075195,0.083297729492
-0.082839965820,0.012573242188,0.014556884766,-0.061203002930,-0.030838012695,0.066482543945
-0.068679809570,-0.032714843750,0.011657714844,-0.013183593750,-0.026077270508,0.033813476563
-0.056182861328,-0.048095703125,0.024917602539,0.002334594727,-0.030380249023,0.030380249023
-0.037887573242,-0.033935546875,0.072189331055,0.015655517578,-0.043777465820,0.045684814453
0.017379760742,0.029357910156,0.095794677734,0.023086547852,-0.048843383789,0.056289672852
0.046417236328,0.076217651367,0.116561889648,0.035064697266,-0.051910400391,0.073547363281
0.093811035156,0.132339477539,0.167556762695,0.041809082031,-0.048034667969,0.073532104492
0.103836059570,0.138290405273,0.184234619141,0.039672851563,-0.039672851563,0.068267822266
0.107543945313,0.110946655273,0.144012451172,0.029815673828,-0.010208129883,0.048614501953
0.106399536133,0.080337524414,0.104797363281,0.014190673828,0.004074096680,0.039382934570
0.105789184570,0.068161010742,-0.008758544922,0.010894775391,0.019927978516,0.030105590820
0.099548339844,0.070938110352,-0.062973022461,0.028701782227,0.013732910156,0.022613525391
0.097747802734,0.037170410156,-0.025787353516,0.028686523438,-0.014572143555,0.002838134766
0.101562500000,0.010040283203,0.003173828125,0.026855468750,-0.022171020508,-0.004516601563
0.105331420898,-0.043609619141,0.026504516602,0.022735595703,-0.023345947266,-0.011932373047
0.107147216797,-0.061416625977,0.029968261719,0.019622802734,-0.021179199219,-0.012451171875
0.108551025391,-0.073532104492,0.031417846680,0.018478393555,-0.016571044922,-0.011184692383
0.117065429688,-0.086227416992,0.021789550781,0.018600463867,-0.014587402344,-0.010620117188
0.118682861328,-0.091964721680,0.023452758789,0.018264770508,-0.013763427734,-0.008758544922
0.122116088867,-0.098999023438,0.021286010742,0.027069091797,-0.013107299805,-0.006835937500
0.122268676758,-0.097381591797,0.014953613281,0.031585693359,-0.012695312500,-0.004379272461
0.123336791992,-0.078125000000,0.013458251953,0.035552978516,-0.013092041016,0.000091552734
0.121902465820,-0.074157714844,0.020553588867,0.035614013672,-0.013198852539,0.000671386719
0.117889404297,-0.070480346680,0.018386840820,0.035797119141,-0.010589599609,0.000167846680
0.116165161133,-0.066940307617,0.011505126953,0.034133911133,-0.008468627930,0.000030517578
0.109298706055,-0.061904907227,0.001251220703,0.028503417969,-0.005432128906,-0.001129150391
0.104598999023,-0.064804077148,-0.002593994141,0.023071289063,-0.003890991211,-0.002243041992
0.104248046875,-0.055862426758,0.002731323242,0.019195556641,-0.002670288086,-0.004104614258
0.100845336914,-0.047897338867,0.011108398438,0.016067504883,-0.000595092773,-0.006500244141
0.095001220703,-0.048080444336,0.016799926758,0.012527465820,0.008560180664,-0.015548706055
0.093383789063,-0.058120727539,0.016296386719,0.003585815430,0.013732910156,-0.020080566406
0.091003417969,-0.100952148438,-0.035583496094,-0.005981445313,0.017837524414,-0.023910522461
0.090103149414,-0.109298706055,-0.040344238281,-0.004455566406,0.010971069336,-0.021270751953
0.082611083984,-0.112838745117,-0.012863159180,-0.004531860352,-0.003890991211,-0.014495849609
0.084106445313,-0.095764160156,0.006942749023,-0.004959106445,-0.007400512695,-0.011596679688
0.087142944336,-0.089340209961,0.019821166992,-0.005599975586,-0.004287719727,-0.010162353516
0.089202880859,-0.090133666992,0.017044067383,-0.005920410156,-0.001632690430,-0.009750366211
0.087280273438,-0.093658447266,0.015716552734,-0.006607055664,0.000732421875,-0.007644653320
0.085968017578,-0.093536376953,0.008346557617,-0.006881713867,0.001754760742,-0.006103515625
0.086471557617,-0.089935302734,0.005859375000,-0.007919311523,0.002243041992,-0.003906250000
0.088836669922,-0.082351684570,0.004745483398,-0.009262084961,0.002212524414,-0.003601074219
0.094558715820,-0.078628540039,0.008819580078,-0.007965087891,0.001632690430,-0.007736206055
0.091537475586,-0.080276489258,0.021759033203,-0.003768920898,0.001083374023,-0.004623413086
0.088973999023,-0.086013793945,0.020843505859,-0.004943847656,0.002487182617,-0.005371093750
0.083404541016,-0.099288940430,0.002075195313,-0.007675170898,0.006332397461,-0.004470825195
0.080780029297,-0.105392456055,-0.005599975586,-0.009277343750,0.006774902344,-0.002960205078
0.083236694336,-0.112091064453,-0.004669189453,-0.013534545898,0.004302978516,0.001373291016
0.086990356445,-0.109298706055,-0.000488281250,-0.013488769531,0.002166748047,0.003875732422
0.089248657227,-0.099334716797,0.013061523438,-0.010971069336,-0.001296997070,0.006866455078
0.090454101563,-0.091369628906,0.015045166016,-0.007598876953,-0.001922607422,0.007019042969
0.092987060547,-0.083206176758,0.023422241211,-0.001220703125,-0.002182006836,0.004486083984
0.093078613281,-0.086364746094,0.023757934570,0.001022338867,-0.001358032227,0.003067016602
0.095062255859,-0.097167968750,0.027008056641,0.002517700195,-0.000198364258,0.002441406250

0.111618041992,-0.097167968750,0.129440307617,0.004394531250,0.002655029297,-0.002975463867
0.112854003906,-0.098266601563,0.161590576172,0.006317138672,0.007431030273,-0.004409790039
0.138244628906,-0.148040771484,0.310928344727,0.003662109375,0.013336181641,-0.012191772461
0.096847534180,-0.179229736328,0.374618530273,0.016448974609,0.022628784180,-0.016983032227
0.011978149414,-0.156539916992,0.267272949219,0.041442871094,0.090026855469,-0.006240844727
-0.028579711914,-0.111907958984,0.123962402344,0.056152343750,0.125350952148,0.002243041992
-0.094558715820,-0.058029174805,-0.048812866211,0.044555664063,0.154876708984,0.001983642578
-0.148376464844,-0.076507568359,-0.132644653320,0.018402099609,0.166885375977,-0.004730224609
-0.195404052734,-0.144683837891,-0.376449584961,-0.040969848633,0.192031860352,-0.020507812500
-0.302337646484,-0.352615356445,-0.499923706055,-0.044631958008,0.186706542969,-0.018417358398
-0.306381225586,-0.433670043945,-0.499938964844,-0.051757812500,0.113983154297,0.023361206055
-0.304306030273,-0.415176391602,-0.499938964844,-0.031021118164,0.049667358398,0.059478759766
-0.307357788086,-0.258193969727,-0.401809692383,-0.018875122070,-0.069580078125,0.118057250977
-0.291610717773,-0.077667236328,-0.138320922852,-0.008575439453,-0.094711303711,0.124130249023
-0.279174804688,-0.024291992188,-0.014114379883,0.006408691406,-0.117233276367,0.123962402344
-0.270431518555,0.088119506836,0.048187255859,0.006866455078,-0.123397827148,0.122985839844
-0.265274047852,0.151992797852,0.080764770508,0.028015136719,-0.123321533203,0.106857299805
-0.255233764648,0.176239013672,0.052551269531,0.034408569336,-0.121612548828,0.087188720703
-0.249557495117,0.158340454102,0.030578613281,0.037628173828,-0.126480102539,0.048751831055
-0.269821166992,0.125976562500,0.105682373047,0.038482666016,-0.151947021484,0.038223266602
-0.242492675781,0.104522705078,0.161132812500,0.031433105469,-0.161239624023,0.029235839844
-0.200546264648,0.051910400391,0.254821777344,0.026489257813,-0.165954589844,0.022415161133
-0.175354003906,0.067749023438,0.296081542969,0.025695800781,-0.163543701172,0.027023315430
-0.145858764648,0.170074462891,0.370285034180,0.031967163086,-0.145965576172,0.037628173828
-0.128234863281,0.216659545898,0.404357910156,0.036285400391,-0.132568359375,0.038650512695
-0.104446411133,0.267028808594,0.450515747070,0.048904418945,-0.092407226563,0.001312255859
-0.107315063477,0.245666503906,0.441513061523,0.050033569336,-0.063827514648,-0.030227661133
-0.128799438477,0.089904785156,0.282974243164,0.045837402344,-0.010543823242,-0.077621459961
-0.136962890625,0.050994873047,0.226806640625,0.049026489258,-0.000518798828,-0.084838867188
-0.136138916016,0.016921997070,0.203659057617,0.046325683594,0.001586914063,-0.091979980469
-0.140197753906,-0.013580322266,0.217651367188,0.046173095703,0.000579833984,-0.100952148438
-0.138046264648,-0.050125122070,0.231536865234,0.051315307617,0.005050659180,-0.121551513672
-0.147033691406,-0.151092529297,0.260253906250,0.058425903320,0.011871337891,-0.129302978516
-0.145385742188,-0.198852539063,0.268798828125,0.071746826172,0.035400390625,-0.143936157227
-0.169952392578,-0.288177490234,0.273254394531,0.082763671875,0.049011230469,-0.143661499023
-0.180084228516,-0.343353271484,0.258377075195,0.096267700195,0.063018798828,-0.100128173828
-0.207977294922,-0.362976074219,0.166900634766,0.129425048828,0.093490600586,-0.077850341797
-0.210266113281,-0.336364746094,0.079147338867,0.149215698242,0.104553222656,-0.053314208984
-0.201080322266,-0.274963378906,-0.012207031250,0.146957397461,0.106216430664,-0.015289306641
-0.194824218750,-0.271820068359,-0.032699584961,0.140472412109,0.103073120117,-0.005218505859
-0.193664550781,-0.320510864258,-0.057937622070,0.112533569336,0.104751586914,0.006546020508
-0.202575683594,-0.326629638672,-0.094833374023,0.106246948242,0.109573364258,0.018280029297
-0.220108032227,-0.248428344727,-0.151489257813,0.084396362305,0.108398437500,0.059844970703
-0.228149414063,-0.201263427734,-0.172912597656,0.054824829102,0.107604980469,0.079284667969
-0.201965332031,-0.144439697266,-0.210632324219,-0.039138793945,0.115783691406,0.095916748047
-0.198150634766,-0.145843505859,-0.213897705078,-0.090332031250,0.122085571289,0.089065551758
-0.174789428711,-0.188934326172,-0.215454101563,-0.107711791992,0.114669799805,0.057174682617
-0.169784545898,-0.228073120117,-0.203277587891,-0.083908081055,0.099975585938,0.039016723633
-0.186447143555,-0.302490234375,-0.182128906250,-0.025466918945,0.068359375000,0.025054931641
-0.194519042969,-0.310577392578,-0.174346923828,-0.006958007813,0.054031372070,0.032379150391
-0.174392700195,-0.241516113281,-0.168472290039,0.020843505859,0.022949218750,0.060913085938
-0.166580200195,-0.191390991211,-0.139877319336,0.024932861328,0.006210327148,0.073135375977
-0.155426025391,-0.132171630859,-0.072494506836,0.022888183594,-0.017593383789,0.085067749023
-0.144958496094,-0.113159179688,-0.051834106445,0.018905639648,-0.022750854492,0.089355468750
-0.131011962891,-0.071716308594,-0.037124633789,0.011276245117,-0.025299072266,0.095245361328
-0.127120971680,-0.043685913086,-0.033706665039,0.010681152344,-0.027221679688,0.096420288086
-0.120864868164,-0.015502929688,-0.019393920898,0.017166137695,-0.035568237305,0.089965820313
-0.102172851563,0.032928466797,-0.011184692383,0.022399902344,-0.040313720703,0.082397460938
-0.091476440430,0.043777465820,-0.002380371094,0.031646728516,-0.049545288086,0.061416625977
-0.075576782227,0.034515380859,0.006546020508,0.035781860352,-0.053756713867,0.051162719727
-0.070251464844,0.025207519531,0.009643554688,0.039596557617,-0.062713623047,0.037094116211
-0.051696777344,0.016113281250,0.043014526367,0.043792724609,-0.071670532227,0.032714843750
-0.046386718750,0.010452270508,0.068267822266,0.046691894531,-0.078018188477,0.028884887695
-0.024337768555,-0.000991821289,0.128997802734,0.048507690430,-0.088073730469,0.026199340820
-0.004028320313,0.020477294922,0.148406982422,0.047119140625,-0.087432861328,0.030410766602
0.021652221680,0.084945678711,0.170532226563,0.047515869141,-0.078765869141,0.033981323242
0.034484863281,0.099884033203,0.182281494141,0.048019409180,-0.072906494141,0.027130126953
0.057418823242,0.079681396484,0.187988281250,0.046630859375,-0.056365966797,0.003341674805
0.062133789063,0.047897338867,0.180618286133,0.043380737305,-0.046936035156,-0.007339477539
0.064865112305,-0.006591796875,0.157028198242,0.039627075195,-0.031555175781,-0.018295288086
0.064102172852,-0.025207519531,0.141586303711,0.039672851563,-0.025894165039,-0.020065307617
0.060836791992,-0.052566528320,0.107299804688,0.050750732422,-0.020462036133,-0.022003173828
0.061508178711,-0.061431884766,0.095687866211,0.055953979492,-0.020004272461,-0.022552490234
0.061935424805,-0.081802368164,0.081481933594,0.058486938477,-0.018722534180,-0.024063110352
0.061691284180,-0.091949462891,0.075317382813,0.056930541992,-0.017852783203,-0.025421142578
0.056488037109,-0.106277465820,0.055206298828,0.054412841797,-0.016387939453,-0.026367187500
0.056167602539,-0.123565673828,0.046173095703,0.051422119141,-0.016799926758,-0.025421142578
0.056732177734,-0.125808715820,0.043731689453,0.042816162109,-0.018325805664,-0.023971557617
0.055358886719,-0.133850097656,0.048904418945,0.040344238281,-0.017990112305,-0.024490356445
0.056259155273,-0.144546508789,0.057022094727,0.029327392578,-0.014038085938,-0.025070190430
0.057952880859,-0.162338256836,0.063003540039,0.026977539063,-0.010452270508,-0.024063110352
0.058044433594,-0.165115356445,0.063735961914,0.022628784180,-0.002502441406,-0.018508911133
0.054595947266,-0.157135009766,0.036010742188,0.020385742188,0.002212524414,-0.016265869141
0.052673339844,-0.155807495117,0.030715942383,0.013885498047,0.004531860352,-0.014602661133
0.053161621094,-0.156814575195,0.007614135742,0.011871337891,0.006271362305,-0.012557983398
0.050674438477,-0.158737182617,-0.000885009766,0.011962890625,0.005462646484,-0.011596679688
0.047760009766,-0.160690307617,-0.005874633789,0.009414672852,0.001358032227,-0.008895874023
0.044982910156,-0.159408569336,-0.004013061523,0.010711669922,-0.000991821289,-0.007400512695
0.048217773438,-0.153900146484,-0.001388549805,0.014099121094,-0.005554199219,-0.004791259766
0.048767089844,-0.145477294922,0.006896972656,0.011810302734,-0.007278442383,-0.003005981445
0.048187255859,-0.138809204102,0.019271850586,0.010742187500,-0.007431030273,-0.001892089844
0.051513671875,-0.135925292969,0.023010253906,0.009124755859,-0.006088256836,-0.001449584961
0.047012329102,-0.133529663086,0.023651123047,0.002487182617,-0.001312255859,-0.000701904297
0.046630859375,-0.132812500000,0.012863159180,0.000656127930,0.001296997070,-0.000518798828
0.042556762695,-0.128265380859,0.001556396484,-0.001617431641,0.002578735352,0.000549316406
0.042968750000,-0.128784179688,0.002990722656,0.002166748047,0.001556396484,0.000701904297
0.041366577148,-0.127029418945,-0.002517700195,-0.006301879883,0.002609252930,0.002807617188
0.037948608398,-0.115661621094,0.000213623047,-0.007354736328,0.001770019531,0.004013061523
0.037109375000,-0.106201171875,0.002166748047,-0.006668090820,0.000915527344,0.002151489258
0.036819458008,-0.113220214844,0.004257202148,-0.008331298828,0.001022338867,-0.000167846680
0.036209106445,-0.123413085938,0.006683349609,-0.010787963867,0.000961303711,-0.000549316406
0.035293579102,-0.134628295898,0.014770507813,-0.015594482422,0.000930786133,0.001129150391
0.035003662109,-0.133514404297,0.019378662109,-0.018417358398,0.001632690430,0.003433227539
0.035232543945,-0.122650146484,0.029785156250,-0.027435302734,0.004837036133,0.008117675781

-0.085739135742,-0.191009521484,0.058502197266,0.004287719727,-0.098846435547,-0.003631591797
-0.099334716797,-0.198379516602,0.090423583984,0.004684448242,-0.100326538086,0.000503540039
-0.098114013672,-0.202423095703,0.196685791016,0.018112182617,-0.104507446289,0.006774902344
-0.088211059570,-0.215362548828,0.255371093750,0.031631469727,-0.105438232422,0.006622314453
-0.101669311523,-0.296875000000,0.381958007813,0.057220458984,-0.104385375977,0.000793457031
-0.108169555664,-0.338882446289,0.450485229492,0.060531616211,-0.096786499023,0.004028320313
-0.134048461914,-0.372238159180,0.499938964844,0.056869506836,-0.058975219727,0.028701782227
-0.159835815430,-0.384811401367,0.499938964844,0.047256469727,-0.030883789063,0.043106079102
-0.224273681641,-0.345886230469,0.499755859375,0.030761718750,0.040618896484,0.075286865234
-0.364456176758,-0.242904663086,0.425704956055,0.028762817383,0.075897216797,0.097961425781
-0.410507202148,-0.143753051758,0.334289550781,0.036773681641,0.130020141602,0.119781494141
-0.455886840820,-0.041702270508,0.126419067383,0.025482177734,0.151748657227,0.118713378906
-0.454650878906,-0.021881103516,0.042404174805,0.007827758789,0.165710449219,0.105239868164
-0.453948974609,-0.033172607422,-0.065994262695,-0.017944335938,0.171173095703,0.092071533203
-0.449783325195,-0.048721313477,-0.101348876953,-0.030426025391,0.169555664063,0.081909179688
-0.442260742187,-0.063385009766,-0.203659057617,-0.052551269531,0.174255371094,0.068786621094
-0.428695678711,-0.074691772461,-0.268310546875,-0.062469482422,0.176025390625,0.063476562500
-0.360687255859,-0.111022949219,-0.366790771484,-0.074279785156,0.161361694336,0.059371948242
-0.351821899414,-0.121643066406,-0.383697509766,-0.077453613281,0.144622802734,0.060882568359
-0.288299560547,-0.067916870117,-0.463241577148,-0.062149047852,0.115997314453,0.069747924805
-0.258239746094,-0.018707275391,-0.491287231445,-0.056762695313,0.097564697266,0.074050903320
-0.220870971680,0.074920654297,-0.427230834961,-0.072631835938,0.049911499023,0.067962646484
-0.212966918945,0.119827270508,-0.371047973633,-0.068374633789,0.024261474609,0.058074951172
-0.184967041016,0.171020507813,-0.249435424805,-0.058319091797,-0.028808593750,0.029418945313
-0.184356689453,0.189834594727,-0.201385498047,-0.059249877930,-0.046737670898,0.014022827148
-0.112014770508,0.253707885742,-0.146682739258,-0.066802978516,-0.063827514648,-0.014099121094
-0.170181274414,0.262802124023,-0.101028442383,-0.080017089844,-0.066680908203,-0.015594482422
-0.194366455078,0.235336303711,-0.056213378906,-0.087600708008,-0.063064575195,-0.080520629883
-0.236724853516,0.163589477539,-0.035064697266,-0.092178344727,-0.059402465820,-0.117736816406
-0.269393920898,-0.043426513672,-0.064346313477,-0.097961425781,-0.050354003906,-0.167160034180
-0.271484375000,-0.177047729492,-0.084136962891,-0.107940673828,-0.050521850586,-0.178573608398
-0.273986816406,-0.395217895508,-0.095260620117,-0.106567382813,-0.063308715820,-0.194854736328
-0.257720947266,-0.482315063477,-0.080596923828,-0.095703125000,-0.075332641602,-0.150787353516
-0.241165161133,-0.477584838867,0.011047363281,-0.081695556641,-0.105239868164,-0.074142456055
-0.232894897461,-0.425048828125,0.067626953125,-0.072418212891,-0.113555908203,-0.039978027344
-0.221038818359,-0.343048095703,0.138671875000,-0.049987792969,-0.112182617188,-0.002166748047
-0.212905883789,-0.318664550781,0.142196655273,-0.037765502930,-0.105255126953,0.006973266602
-0.227462768555,-0.305572509766,0.119247436523,-0.018585205078,-0.092681884766,0.016143798828
-0.238754272461,-0.324356079102,0.110443115234,-0.012329101563,-0.091003417969,0.018524169922
-0.252029418945,-0.376739501953,0.132583618164,-0.001022338867,-0.096206665039,0.027526855469
-0.310211181641,-0.397918701172,0.155654907227,0.029281616211,-0.110824584961,0.033401489258
-0.364547729492,-0.414932250977,0.228103637695,0.024353027344,-0.125747680664,0.054458618164
-0.389694213867,-0.389572143555,0.258666992188,0.026107788086,-0.125274658203,0.075561523438
-0.436401367187,-0.310623168945,0.283615112305,0.062698364258,-0.128341674805,0.100997924805
-0.438400268555,-0.258316040039,0.285400390625,0.064285278320,-0.123580932617,0.104888916016
-0.402313232422,-0.209014892578,0.242706298828,0.047103881836,-0.090301513672,0.101913452148
-0.296279907227,-0.148452758789,0.202987670898,0.023880004883,-0.063949584961,0.097091674805
-0.255172729492,-0.148193359375,0.170791625977,-0.004760742188,-0.009170532227,0.083541870117
-0.261459350586,-0.221359252930,0.083282470703,-0.043182373047,0.014068603516,0.079696655273
-0.261657714844,-0.252227783203,0.029281616211,-0.045761108398,0.034042358398,0.079818725586
-0.281158447266,-0.239791870117,-0.018188476563,-0.027587890625,0.039871215820,0.102813720703
-0.296493530273,-0.188110351563,-0.002883911133,-0.012954711914,0.033599853516,0.121185302734
-0.259918212891,-0.077728271484,0.079986572266,0.028488159180,0.014465332031,0.148681640625
-0.252639770508,-0.013626098633,0.096923828125,0.014938354492,0.022079467773,0.162200927734
-0.216613769531,0.096038818359,0.090103149414,0.004043579102,0.049301147461,0.161743164063
-0.185058593750,0.132324218750,0.065460205078,0.007553100586,0.059249877930,0.149322509766
-0.109802246094,0.160217285156,0.015823364258,0.016860961914,0.066223144531,0.109298706055
-0.080169677734,0.152679443359,-0.004821777344,0.023284912109,0.065429687500,0.085800170898
-0.062500000000,0.135879516602,-0.000793457031,0.001983642578,0.060409545898,0.046875000000
-0.067993164063,0.130004882813,-0.003677368164,-0.017349243164,0.061248779297,0.030273437500
-0.081375122070,0.111694335938,-0.027694702148,-0.053588867188,0.067703247070,0.003463745117
-0.068756103516,0.091613769531,-0.065155029297,-0.065460205078,0.073333740234,-0.004852294922
-0.061447143555,0.060089111328,-0.104858398438,-0.084350585938,0.073043823242,-0.016174316406
-0.037994384766,-0.028335571289,-0.150390625000,-0.085723876953,0.065017700195,-0.018112182617
-0.027664184570,-0.056793212891,-0.152648925781,-0.063415527344,0.044052124023,-0.009552001953
-0.013473510742,-0.042190551758,-0.119567871094,-0.049163818359,0.035293579102,-0.002838134766
-0.008468627930,-0.014129638672,-0.095230102539,-0.019393920898,0.033111572266,-0.002105712891
-0.024459838867,0.018966674805,-0.094741821289,-0.014556884766,0.040847778320,-0.009353637695
-0.023071289063,0.003936767578,-0.137985229492,-0.027145385742,0.051651000977,-0.034194946289
-0.027206420898,-0.060989379883,-0.164230346680,-0.039718627930,0.055664062500,-0.044387817383
-0.022720336914,-0.100494384766,-0.196655273438,-0.043533325195,0.056793212891,-0.057846069336
-0.019729614258,-0.173431396484,-0.219879150391,-0.047866821289,0.047729492188,-0.059722900391
-0.007675170898,-0.202224731445,-0.196151733398,-0.046661376953,0.020584106445,-0.047149658203
0.004653930664,-0.216018676758,-0.116821289063,-0.047103881836,0.012130737305,-0.034393310547
0.004501342773,-0.217605590820,-0.083007812500,-0.027679443359,-0.000015258789,-0.012847900391
0.057769775391,-0.229660034180,-0.071762084961,-0.018188476563,-0.002883911133,-0.000625610352
0.093841552734,-0.191360473633,-0.088516235352,-0.014236450195,-0.002548217773,0.010162353516
0.030807495117,-0.123229980469,-0.054763793945,-0.000396728516,-0.006057739258,0.010513305664
0.004898071289,-0.104232788086,-0.050506591797,0.002120971680,-0.003082275391,0.009124755859
0.028671264648,-0.133117675781,-0.061614990234,-0.003402709961,0.003356933594,-0.004104614258
0.016052246094,-0.149215698242,-0.065032958984,-0.006103515625,0.004409790039,-0.006210327148
0.014007568359,-0.186553955078,-0.054412841797,-0.003906250000,0.000808715820,-0.009933471680
0.011795043945,-0.194061279297,-0.043380737305,0.001403808594,-0.001083374023,-0.008331298828
0.000015258789,-0.182159423828,-0.032974243164,0.003295898438,0.002899169922,0.004714965820
0.012191772461,-0.167831420898,-0.027709960938,0.000839233398,0.006164550781,0.010818481445
0.012008666992,-0.128219604492,-0.007736206055,-0.000778198242,0.011398315430,0.018630981445
0.000396728516,-0.120895385742,-0.000976562500,-0.004684448242,0.015258789063,0.020767211914
0.002120971680,-0.097457885742,-0.007843017578,-0.007034301758,0.025238037109,0.022033691406
-0.019973754883,-0.089675903320,-0.022552490234,-0.017456054688,0.034881591797,0.019073486328
-0.001861572266,-0.107208251953,-0.080764770508,-0.014419555664,0.042907714844,0.004608154297
0.019332885742,-0.125198364258,-0.094070434570,-0.008377075195,0.035964965820,-0.002105712891
0.009201049805,-0.176666259766,-0.065963745117,0.006515502930,0.014328002930,-0.011856079102
-0.005661010742,-0.204940795898,-0.047744750977,0.009811401367,0.006698608398,-0.013229370117
0.002838134766,-0.217315673828,-0.038848876953,0.011474609375,-0.000793457031,0.000839233398
-0.030853271484,-0.215774536133,-0.019882202148,0.005599975586,-0.000564575195,0.015670776367
-0.034393310547,-0.199630737305,-0.039001464844,-0.005950927734,0.006927490234,0.045989990234
-0.022552490234,-0.134216308594,-0.071563720703,-0.008987426758,0.006179809570,0.056304931641
-0.014785766602,-0.099807739258,-0.073272705078,-0.010757446289,-0.002975463867,0.060745239258
0.008972167969,-0.069274902344,-0.026885986328,-0.012054443359,-0.007980346680,0.056243896484
0.016540527344,-0.062606811523,-0.015045166016,-0.007003784180,-0.008666992188,0.043243408203
0.028640747070,-0.050308227539,-0.013824462891,-0.005126953125,-0.002471923828,0.040267944336
-0.000289916992,-0.040161132813,-0.015975952148,-0.004241943359,0.000961303711,0.025421142578
0.027770996094,-0.055969238281,-0.020645141602,0.000656127930,0.001937866211,0.015701293945
0.044403076172,-0.071319580078,-0.028427124023,0.001861572266,0.002532958984,0.007888793945

-0.010574340820,-0.201889038086,-0.099380493164,0.082183837891,0.020416259766,-0.048065185547
-0.027877807617,-0.216171264648,-0.118286132813,0.081130981445,0.024307250977,-0.048583984375
-0.060577392578,-0.226303100586,-0.148712158203,0.081069946289,0.027420043945,-0.040786743164
-0.081481933594,-0.227600097656,-0.154846191406,0.081558227539,0.025360107422,-0.034255981445
-0.138763427734,-0.264724731445,-0.140182495117,0.070983886719,0.019897460938,-0.020599365234
-0.176193237305,-0.301315307617,-0.126281738281,0.054656982422,0.022033691406,-0.011795043945
-0.260406494141,-0.355255126953,-0.112228393555,0.017288208008,0.038269042969,0.021743774414
-0.296417236328,-0.349822998047,-0.125030517578,0.008468627930,0.049133300781,0.048828125000
-0.328765869141,-0.305130004883,-0.143005371094,0.004318237305,0.062850952148,0.112716674805
-0.374099731445,-0.146331787109,-0.167114257813,0.007766723633,0.064025878906,0.139358520508
-0.381790161133,-0.068405151367,-0.177536010742,0.014801025391,0.055908203125,0.167556762695
-0.353378295898,0.057891845703,-0.195938110352,0.015167236328,0.045761108398,0.168823242188
-0.337677001953,0.101455688477,-0.201156616211,0.014328002930,0.032836914063,0.150558471680
-0.297210693359,0.146118164063,-0.213973999023,0.013717651367,0.002914428711,0.131805419922
-0.277816772461,0.152267456055,-0.217926025391,0.015258789063,-0.016098022461,0.112442016602
-0.269989013672,0.131774902344,-0.202117919922,0.028030395508,-0.065719604492,0.069931030273
-0.272613525391,0.109664916992,-0.167846679688,0.035018920898,-0.093795776367,0.051666259766
-0.292526245117,0.058090209961,-0.072341918945,0.043930053711,-0.145767211914,0.027572631836
-0.308044433594,0.040924072266,-0.021362304688,0.044631958008,-0.166748046875,0.022293090820
-0.338623046875,0.030334472656,0.069549560547,0.034957885742,-0.192825317383,0.022583007813
-0.340682983398,0.030105590820,0.105407714844,0.030456542969,-0.198928833008,0.023590087891
-0.322845458984,0.042526245117,0.156280517578,0.027389526367,-0.199996948242,0.025100708008
-0.319778442383,0.047134399414,0.180938720703,0.028167724609,-0.200820922852,0.022460937500
-0.289550781250,0.045944213867,0.229919433594,0.037521362305,-0.203475952148,0.010162353516
-0.267303466797,0.041824340820,0.256896972656,0.043869018555,-0.203796386719,0.001113891602
-0.250656127930,0.031600952148,0.285446166992,0.066925048828,-0.203384399414,-0.023529052734
-0.239837646484,-0.009994506836,0.340362548828,0.080200195313,-0.198974609375,-0.037506103516
-0.228652954102,-0.037261962891,0.367660522461,0.099182128906,-0.174545288086,-0.058425903320
-0.181915283203,-0.102584838867,0.396011352539,0.104537963867,-0.151947021484,-0.065231323242
-0.145767211914,-0.135787963867,0.393310546875,0.104156494141,-0.124160766602,-0.064392089844
-0.101043701172,-0.176986694336,0.368026733398,0.083160400391,-0.061508178711,-0.054687500000
-0.087814331055,-0.175354003906,0.322036743164,0.072906494141,-0.028915405273,-0.025222778320
-0.078125000000,-0.098358154297,0.223297119141,0.055755615234,0.020065307617,-0.010620117188
-0.082443237305,-0.053039550781,0.181488037109,0.053710937500,0.034835815430,0.001815795898
-0.086196899414,0.004440307617,0.115982055664,0.049514770508,0.051956176758,-0.005065917969
-0.093734741211,0.012008666992,0.092956542969,0.046188354492,0.055419921875,-0.015869140625
-0.106887817383,-0.020629882813,0.064636230469,0.043380737305,0.055664062500,-0.044799804688
-0.115676879883,-0.054916381836,0.056198120117,0.049774169922,0.054244995117,-0.057296752930
-0.126739501953,-0.121780395508,0.052536010742,0.060150146484,0.052856445313,-0.070755004883
-0.130767822266,-0.143753051758,0.050964355469,0.068161010742,0.052383422852,-0.069198608398
-0.135955810547,-0.164764404297,0.055404663086,0.083129882813,0.052246093750,-0.057067871094
-0.154296875000,-0.173049926758,0.064819335938,0.087295532227,0.053680419922,-0.052429199219
-0.203857421875,-0.201293945313,0.075912475586,0.094711303711,0.064620971680,-0.047866821289
-0.226272583008,-0.216903686523,0.069107055664,0.099929809570,0.074005126953,-0.044143676758
-0.265930175781,-0.236663818359,0.020935058594,0.108871459961,0.096725463867,-0.026885986328
-0.280258178711,-0.235534667969,-0.008789062500,0.109527587891,0.106048583984,-0.014450073242
-0.299011230469,-0.208831787109,-0.059265136719,0.108215332031,0.115158081055,0.014938354492
-0.310073852539,-0.177993774414,-0.071426391602,0.103149414063,0.117477416992,0.031372070313
-0.315567016602,-0.142578125000,-0.083480834961,0.095169067383,0.122512817383,0.052612304688
-0.330398559570,-0.096832275391,-0.102355957031,0.086471557617,0.125656127930,0.053466796875
-0.343856811523,-0.089752197266,-0.099594116211,0.072921752930,0.133483886719,0.048034667969
-0.428359985352,-0.114593505859,-0.097671508789,0.033432006836,0.143539428711,0.043899536133
-0.475708007812,-0.142913818359,-0.102279663086,0.011154174805,0.158721923828,0.036956787109
-0.499938964844,-0.188934326172,-0.147964477539,0.003356933594,0.184371948242,0.026794433594
-0.499938964844,-0.201904296875,-0.181900024414,0.007629394531,0.186233520508,0.028457641602
-0.495483398437,-0.205871582031,-0.254882812500,0.023803710938,0.165359497070,0.044952392578
-0.463958740234,-0.194885253906,-0.276153564453,0.030303955078,0.141021728516,0.057449340820
-0.399658203125,-0.148590087891,-0.256317138672,0.039794921875,0.074157714844,0.079757690430
-0.362930297852,-0.119354248047,-0.221603393555,0.047653198242,0.040252685547,0.086318969727
-0.304672241211,-0.070175170898,-0.113342285156,0.053634643555,-0.017242431641,0.092407226563
-0.278793334961,-0.055175781250,-0.067840576172,0.053466796875,-0.035766601563,0.092453002930
-0.225906372070,-0.033874511719,-0.017074584961,0.054779052734,-0.054199218750,0.090881347656
-0.200592041016,-0.020416259766,-0.003280639648,0.053024291992,-0.057922363281,0.091262817383
-0.159210205078,0.007400512695,0.018051147461,0.044097900391,-0.059982299805,0.091567993164
-0.141891479492,0.019805908203,0.024993896484,0.038146972656,-0.058090209961,0.090606689453
-0.104660034180,0.036514282227,0.024688720703,0.024383544922,-0.048858642578,0.084487915039
-0.084381103516,0.043090820313,0.017456054688,0.019653320313,-0.043777465820,0.080566406250
-0.037872314453,0.053558349609,0.002502441406,0.016937255859,-0.039962768555,0.071350097656
-0.014663696289,0.056686401367,-0.000839233398,0.018112182617,-0.042190551758,0.065795898438
0.025756835938,0.059860229492,0.012481689453,0.025390625000,-0.054214477539,0.054107666016
0.035171508789,0.058975219727,0.028701782227,0.028854370117,-0.061218261719,0.048248291016
0.038467407227,0.055480957031,0.047164916992,0.033508300781,-0.068527221680,0.035675048828
0.041351318359,0.038391113281,0.079437255859,0.033950805664,-0.067184448242,0.029220581055
0.053924560547,0.022644042969,0.083053588867,0.034759521484,-0.062973022461,0.022979736328
0.075424194336,0.008911132813,0.093307495117,0.022476196289,-0.049545288086,0.016662597656
0.086471557617,0.005599975586,0.091064453125,0.020675659180,-0.042480468750,0.014419555664
0.093078613281,0.002960205078,0.083877563477,0.016021728516,-0.029724121094,0.009628295898
0.092269897461,-0.002288818359,0.077270507813,0.011886596680,-0.023345947266,0.006530761719
0.094070434570,-0.015640258789,0.051040649414,0.002166748047,-0.010864257813,0.001541137695
0.096267700195,-0.022415161133,0.034317016602,-0.001129150391,-0.006332397461,-0.000137329102
0.096923828125,-0.036636352539,0.005920410156,-0.003723144531,-0.003341674805,-0.002578735352
0.096603393555,-0.042541503906,-0.002502441406,-0.003952026367,-0.004379272461,-0.003250122070
0.095504760742,-0.049392700195,-0.010528564453,-0.003173828125,-0.008438110352,-0.003524780273
0.093872070313,-0.050567626953,-0.010482788086,-0.002975463867,-0.010681152344,-0.003601074219
0.092788696289,-0.051681518555,-0.006576538086,-0.002593994141,-0.014312744141,-0.005218505859
0.092376708984,-0.053207397461,-0.003234863281,-0.001846313477,-0.015853881836,-0.006912231445
0.092041015625,-0.059432983398,0.004333496094,0.000015258789,-0.017974853516,-0.011230468750
0.093139648438,-0.063354492188,0.007034301758,0.000930786133,-0.018341064453,-0.013549804688
0.088195800781,-0.077316284180,0.012207031250,0.005004882813,-0.018646240234,-0.018325805664
0.088928222656,-0.089584350586,0.006439208984,0.009979248047,-0.018829345703,-0.020782470703
0.085479736328,-0.095108032227,0.021331787109,0.003112792969,-0.016616821289,-0.021194458008
0.079574584961,-0.111511230469,0.024963378906,0.000564575195,-0.014724731445,-0.020339965820
0.078063964844,-0.116958618164,0.025726318359,-0.000183105469,-0.009292602539,-0.016448974609
0.078323364258,-0.120193481445,0.023147583008,-0.002975463867,-0.006317138672,-0.014144897461
0.076980590820,-0.117919921875,0.019729614258,-0.003967285156,-0.003707885742,-0.010025024414
0.076797485352,-0.104278564453,0.008911132813,-0.003936767578,-0.000350952148,-0.008850097656
0.076385498047,-0.099838256836,0.003479003906,-0.002517700195,0.000289916992,-0.009017944336
0.071762084961,-0.104431152344,-0.003860473633,-0.001144409180,-0.000183105469,-0.010604858398
0.070007324219,-0.106216430664,-0.005920410156,0.000244140625,-0.000900268555,-0.010757446289
0.071105957031,-0.105041503906,-0.003952026367,0.002502441406,-0.003219604492,-0.010574340820
0.068954467773,-0.104568481445,-0.003967285156,0.004135131836,-0.004455566406,-0.010375976563
0.068389892578,-0.101684570313,0.003738403320,0.005111694336,-0.005599975586,-0.010192871094
0.068801879883,-0.099746704102,0.005157470703,0.004699707031,-0.005310058594,-0.010253906250
0.067626953125,-0.096298217773,0.002990722656,0.005447387695,-0.004013061523,-0.010971069336

-0.231262207031,-0.030456542969,0.067489624023,0.028274536133,-0.176452636719,-0.033905029297
-0.300781250000,-0.051864624023,0.112747192383,0.074096679688,-0.197784423828,-0.054397583008
-0.418853759766,-0.165618896484,0.219268798828,0.102722167969,-0.219558715820,-0.118957519531
-0.499893188477,-0.259521484375,0.268554687500,0.092910766602,-0.216110229492,-0.152862548828
-0.499938964844,-0.487365722656,0.345382690430,0.066787719727,-0.189926147461,-0.186889648438
-0.490341186523,-0.499938964844,0.348220825195,0.058319091797,-0.161727905273,-0.169647216797
-0.368179321289,-0.499938964844,0.318817138672,0.030899047852,-0.085494995117,-0.055709838867
-0.409164428711,-0.499938964844,0.297485351563,0.021606445313,-0.047210693359,0.018920898438
-0.499938964844,-0.402679443359,0.228424072266,0.006698608398,0.026306152344,0.154724121094
-0.499938964844,-0.254028320313,0.178802490234,-0.000885009766,0.065872192383,0.213912963867
-0.499938964844,-0.010055541992,0.074050903320,0.001113891602,0.130416870117,0.298767089844
-0.499938964844,0.078582763672,0.036270141602,0.009231567383,0.146438598633,0.321716308594
-0.499938964844,0.208938598633,-0.022216796875,0.011093139648,0.159454345703,0.329818725586
-0.499938964844,0.260086059570,-0.052947998047,0.006942749023,0.160629272461,0.317047119141
-0.499938964844,0.292160034180,-0.096420288086,-0.049301147461,0.161087036133,0.288772583008
-0.499938964844,0.280212402344,-0.171005249023,-0.118835449219,0.170608520508,0.243576049805
-0.484222412109,0.238922119141,-0.245590209961,-0.145980834961,0.187911987305,0.181213378906
-0.345214843750,0.142700195313,-0.424972534180,-0.133865356445,0.199020385742,0.091308593750
-0.260009765625,0.091003417969,-0.475448608398,-0.118041992188,0.165771484375,0.060089111328
-0.162109375000,0.030715942383,-0.465179443359,-0.080734252930,0.064132690430,0.034927368164
-0.136962890625,0.034713745117,-0.391540527344,-0.067504882813,0.013381958008,0.035675048828
-0.112182617188,0.097579956055,-0.210540771484,-0.074066162109,-0.057617187500,0.046401977539
-0.105651855469,0.145858764648,-0.138900756836,-0.077239990234,-0.074218750000,0.050384521484
-0.097808837891,0.229187011719,-0.037872314453,-0.072631835938,-0.086959838867,0.037887573242
-0.101562500000,0.258087158203,-0.002349853516,-0.069320678711,-0.085586547852,0.020797729492
-0.132125854492,0.286315917969,0.044708251953,-0.070526123047,-0.073135375977,-0.029830932617
-0.171691894531,0.276351928711,0.051940917969,-0.074325561523,-0.062530517578,-0.063201904297
-0.241424560547,0.182159423828,0.038391113281,-0.085739135742,-0.047149658203,-0.134872436523
-0.315261840820,0.110458374023,0.049468994141,-0.092575073242,-0.049591064453,-0.167877197266
-0.394271850586,-0.036651611328,0.056808471680,-0.089584350586,-0.055572509766,-0.215301513672
-0.419586181641,-0.110031127930,0.053222656250,-0.087326049805,-0.055053710938,-0.227462768555
-0.420578002930,-0.242233276367,0.056442260742,-0.094528198242,-0.057891845703,-0.230697631836
-0.445251464844,-0.262145996094,0.071517944336,-0.096817016602,-0.056961059570,-0.240264892578
-0.427688598633,-0.378112792969,0.074005126953,-0.100692749023,-0.057083129883,-0.176162719727
-0.408676147461,-0.418136596680,0.073226928711,-0.090301513672,-0.057800292969,-0.152435302734
-0.381469726563,-0.452529907227,0.071517944336,-0.080123901367,-0.061309814453,-0.089675903320
-0.367141723633,-0.443878173828,0.062820434570,-0.076766967773,-0.059844970703,-0.052261352539
-0.344604492188,-0.330917358398,0.035842895508,-0.081085205078,-0.053497314453,0.026062011719
-0.357666015625,-0.249237060547,0.030120849609,-0.081588745117,-0.054046630859,0.059127807617
-0.389678955078,-0.118347167969,0.034072875977,-0.071899414063,-0.067230224609,0.098312377930
-0.401367187500,-0.074142456055,0.045562744141,-0.062713623047,-0.078094482422,0.103286743164
-0.405807495117,-0.037170410156,0.094726562500,-0.033309936523,-0.108718872070,0.086593627930
-0.403427124023,-0.043670654297,0.124618530273,-0.020523071289,-0.122055053711,0.070556640625
-0.386474609375,-0.086532592773,0.172912597656,-0.017608642578,-0.129241943359,0.046722412109
-0.365570068359,-0.107925415039,0.199661254883,-0.031738281250,-0.121353149414,0.043090820313
-0.297698974609,-0.127609252930,0.223922729492,-0.052078247070,-0.089462280273,0.052154541016
-0.265228271484,-0.121292114258,0.220230102539,-0.053787231445,-0.070510864258,0.060195922852
-0.231460571289,-0.116210937500,0.201034545898,-0.026275634766,-0.041961669922,0.066772460938
-0.237808227539,-0.127212524414,0.199935913086,-0.019393920898,-0.032241821289,0.066925048828
-0.248855590820,-0.153045654297,0.183883666992,-0.016662597656,-0.009307861328,0.067474365234
-0.275070190430,-0.166412353516,0.169204711914,-0.020233154297,0.003067016602,0.067932128906
-0.258590698242,-0.193756103516,0.128021240234,-0.038467407227,0.030807495117,0.072006225586
-0.265609741211,-0.204833984375,0.110198974609,-0.034683227539,0.038192749023,0.076629638672
-0.264694213867,-0.194961547852,0.072708129883,-0.020050048828,0.043884277344,0.097869873047
-0.261856079102,-0.161132812500,0.053680419922,-0.008224487305,0.042968750000,0.113555908203
-0.240707397461,-0.065475463867,0.043701171875,0.011718750000,0.034179687500,0.141510009766
-0.225463867188,-0.021636962891,0.052703857422,0.016815185547,0.028244018555,0.149215698242
-0.205184936523,0.015884399414,0.062423706055,0.009857177734,0.024230957031,0.149017333984
-0.160430908203,0.074142456055,0.076583862305,-0.001205444336,0.027526855469,0.142425537109
-0.128845214844,0.093444824219,0.076766967773,-0.009735107422,0.033721923828,0.119888305664
-0.087982177734,0.111816406250,0.051864624023,-0.017822265625,0.052566528320,0.100585937500
-0.072174072266,0.109359741211,0.027084350586,-0.020538330078,0.061889648438,0.083099365234
-0.047653198242,0.086914062500,-0.026092529297,-0.025817871094,0.073364257813,0.051818847656
-0.033126831055,0.070236206055,-0.047515869141,-0.028808593750,0.074279785156,0.039154052734
-0.009872436523,0.026519775391,-0.068862915039,-0.029373168945,0.067672729492,0.017715454102
-0.002044677734,0.006759643555,-0.077636718750,-0.022918701172,0.062179565430,0.010650634766
0.014251708984,-0.019348144531,-0.085769653320,-0.011901855469,0.047790527344,0.006881713867
0.023574829102,-0.025146484375,-0.083557128906,-0.009948730469,0.040802001953,0.007812500000
0.039886474609,-0.022262573242,-0.069763183594,-0.007690429688,0.030273437500,0.011291503906
0.048873901367,-0.013809204102,-0.061172485352,-0.008331298828,0.027526855469,0.013046264648
0.061645507813,0.007492065430,-0.052795410156,-0.010650634766,0.027008056641,0.013580322266
0.069778442383,0.016815185547,-0.057891845703,-0.012557983398,0.028610229492,0.012176513672
0.079940795898,0.019592285156,-0.077377319336,-0.016372680664,0.031692504883,0.004974365234
0.080490112305,0.014953613281,-0.082870483398,-0.019241333008,0.031311035156,0.000427246094
0.084228515625,0.005737304688,-0.082046508789,-0.022109985352,0.028167724609,-0.009628295898
0.089492797852,-0.021972656250,-0.073242187500,-0.021438598633,0.025955200195,-0.014328002930
0.090484619141,-0.038497924805,-0.066879272461,-0.021362304688,0.022537231445,-0.022216796875
0.091690063477,-0.074310302734,-0.047271728516,-0.022659301758,0.021636962891,-0.025436401367
0.088973999023,-0.092208862305,-0.041244506836,-0.021850585938,0.021789550781,-0.027481079102
0.078948974609,-0.122665405273,-0.041244506836,-0.026336669922,0.025665283203,-0.026092529297
0.077026367188,-0.134735107422,-0.044692993164,-0.030624389648,0.028472900391,-0.023559570313
0.067993164063,-0.150222778320,-0.043075561523,-0.041748046875,0.033370971680,-0.016571044922
0.064270019531,-0.152923583984,-0.043914794922,-0.044021606445,0.036026000977,-0.012710571289
0.067626953125,-0.158538818359,-0.045608520508,-0.045852661133,0.037857055664,-0.007202148438
0.067245483398,-0.160766601563,-0.046432495117,-0.043670654297,0.036163330078,-0.005081176758
0.070083618164,-0.162033081055,-0.051879882813,-0.034683227539,0.029541015625,-0.001113891602
0.070892333984,-0.159851074219,-0.051315307617,-0.029678344727,0.024368286133,0.001113891602
0.074600219727,-0.148712158203,-0.041946411133,-0.020706176758,0.013320922852,0.006179809570
0.075851440430,-0.139312744141,-0.033187866211,-0.016174316406,0.008010864258,0.008331298828
0.075790405273,-0.116928100586,-0.019363403320,-0.005508422852,-0.000274658203,0.011154174805
0.074584960938,-0.106399536133,-0.012222290039,-0.002410888672,-0.002700805664,0.011398315430
0.075485229492,-0.091583251953,-0.001220703125,-0.002243041992,-0.003829956055,0.009750366211
0.076202392578,-0.086914062500,0.001159667969,-0.003250122070,-0.002761840820,0.008392333984
0.075042724609,-0.081710815430,-0.002380371094,-0.004760742188,-0.000396728516,0.005233764648
0.074325561523,-0.081741333008,-0.006225585938,-0.004959106445,0.000289916992,0.003219604492
0.072357177734,-0.088836669922,-0.006195068359,-0.002868652344,-0.000900268555,-0.000915527344
0.073379516602,-0.092330932617,0.003356933594,-0.003723144531,-0.002227783203,-0.002197265625
0.072418212891,-0.106521606445,0.003021240234,-0.000137329102,-0.002822875977,-0.004562377930
0.071105957031,-0.111419677734,0.006896972656,0.000991821289,-0.003646850586,-0.004577636719
0.069427490234,-0.112854003906,0.012832641602,0.000518798828,-0.002868652344,-0.002426147461
0.070053100586,-0.110946655273,0.010330200195,0.000045776367,-0.001480102539,-0.001235961914
0.070999145508,-0.108001708984,0.001449584961,-0.000961303711,0.000167846680,0.000305175781
0.071716308594,-0.100158691406,-0.004104614258,-0.000549316406,-0.000076293945,0.000488281250
0.072189331055,-0.097167968750,-0.007064819336,0.001190185547,-0.002441406250,-0.000610351563

-0.090072631836,-0.211044311523,-0.031845092773,0.053634643555,0.036010742188,0.003036499023
-0.130737304688,-0.211669921875,-0.070098876953,0.037460327148,0.052886962891,0.015777587891
-0.238159179688,-0.239227294922,-0.152740478516,-0.016937255859,0.099075317383,0.034210205078
-0.283782958984,-0.266448974609,-0.204864501953,-0.040893554688,0.124008178711,0.038894653320
-0.352767944336,-0.309783935547,-0.288452148438,-0.048599243164,0.140151977539,0.057601928711
-0.349685668945,-0.317794799805,-0.321899414063,-0.037597656250,0.127212524414,0.073867797852
-0.373031616211,-0.235229492188,-0.329803466797,-0.011474609375,0.072509765625,0.125701904297
-0.389480590820,-0.160690307617,-0.321243286133,-0.003143310547,0.044692993164,0.152328491211
-0.405197143555,0.006652832031,-0.277526855469,0.006927490234,-0.011550903320,0.187210083008
-0.404602050781,0.082580566406,-0.253982543945,0.020126342773,-0.042251586914,0.190902709961
-0.385192871094,0.196777343750,-0.182434082031,0.048919677734,-0.115921020508,0.165756225586
-0.365142822266,0.226837158203,-0.111251831055,0.063003540039,-0.157257080078,0.138259887695
-0.386825561523,0.197677612305,0.049514770508,0.092514038086,-0.221862792969,0.070510864258
-0.421890258789,0.159667968750,0.118087768555,0.100494384766,-0.238601684570,0.031814575195
-0.418151855469,0.118927001953,0.171218872070,0.113296508789,-0.247528076172,-0.035720825195
-0.368270874023,0.027969360352,0.228378295898,0.114334106445,-0.245407104492,-0.059936523438
-0.350601196289,-0.007965087891,0.261947631836,0.096710205078,-0.246948242188,-0.083831787109
-0.350723266602,-0.044799804688,0.363037109375,0.108489990234,-0.246627807617,-0.088638305664
-0.363067626953,-0.064865112305,0.407775878906,0.161712646484,-0.217529296875,-0.108596801758
-0.315216064453,-0.158767700195,0.424240112305,0.179550170898,-0.180236816406,-0.124237060547
-0.270050048828,-0.209075927734,0.413040161133,0.168640136719,-0.132720947266,-0.132278442383
-0.196609497070,-0.298736572266,0.337249755859,0.119506835938,-0.032791137695,-0.106842041016
-0.201553344727,-0.305145263672,0.277832031250,0.113082885742,0.005004882813,-0.054367065430
-0.226684570313,-0.251785278320,0.166671752930,0.117630004883,0.045089721680,-0.029617309570
-0.250335693359,-0.220230102539,0.125579833984,0.125244140625,0.053878784180,-0.013839721680
-0.279769897461,-0.240005493164,0.088500976563,0.150634765625,0.051391601563,-0.011505126953
-0.292526245117,-0.269149780273,0.072052001953,0.163986206055,0.050430297852,-0.008819580078
-0.289581298828,-0.268066406250,0.009796142578,0.185012817383,0.059661865234,0.034713745117
-0.295578002930,-0.216522216797,-0.011642456055,0.185791015625,0.062026977539,0.071105957031
-0.356750488281,-0.061691284180,-0.028381347656,0.178497314453,0.066116333008,0.144363403320
-0.402664184570,0.006317138672,-0.033294677734,0.152770996094,0.078216552734,0.170104980469
-0.496002197266,0.075820922852,-0.074890136719,0.047378540039,0.131713867188,0.181930541992
-0.499938964844,0.065948486328,-0.114852905273,-0.023986816406,0.172500610352,0.164260864258
-0.499938964844,-0.037429809570,-0.143508911133,-0.128265380859,0.244552612305,0.092422485352
-0.499938964844,-0.115783691406,-0.166046142578,-0.122467041016,0.264816284180,0.049560546875
-0.499938964844,-0.272430419922,-0.253723144531,-0.065872192383,0.261169433594,0.003540039063
-0.499938964844,-0.316650390625,-0.292404174805,-0.034317016602,0.236877441406,0.013534545898
-0.499938964844,-0.331954956055,-0.339172363281,0.017944335938,0.157379150391,0.069122314453
-0.452636718750,-0.256912231445,-0.323776245117,0.033462524414,0.107910156250,0.102294921875
-0.417984008789,-0.172576904297,-0.285430908203,0.070175170898,0.004776000977,0.150650024414
-0.376037597656,-0.020401000977,-0.155502319336,0.078964233398,-0.043029785156,0.161117553711
-0.370605468750,0.023757934570,-0.093399047852,0.086120605469,-0.108627319336,0.153991699219
-0.321853637695,0.068740844727,0.003723144531,0.086517333984,-0.127655029297,0.141937255859
-0.296325683594,0.068237304688,0.025146484375,0.087600708008,-0.137786865234,0.125213623047
-0.223281860352,0.062423706055,0.083908081055,0.060943603516,-0.143539428711,0.097579956055
-0.174331665039,0.057693481445,0.102859497070,0.050109863281,-0.138610839844,0.086990356445
-0.098892211914,0.058761596680,0.130630493164,0.043823242188,-0.125808715820,0.071090698242
-0.069961547852,0.059524536133,0.128845214844,0.045288085938,-0.119674682617,0.066528320313
-0.002746582031,0.072067260742,0.147827148438,0.036056518555,-0.106872558594,0.055084228516
0.020156860352,0.077423095703,0.150604248047,0.040878295898,-0.100234985352,0.048278808594
0.042541503906,0.081527709961,0.169967651367,0.041366577148,-0.084243774414,0.028015136719
0.058380126953,0.076202392578,0.175735473633,0.038146972656,-0.072311401367,0.016159057617
0.069274902344,0.061889648438,0.171798706055,0.034973144531,-0.057678222656,0.003479003906
0.080322265625,0.012664794922,0.154785156250,0.008972167969,-0.024917602539,-0.018066406250
0.077423095703,-0.015441894531,0.130386352539,-0.002471923828,-0.008102416992,-0.025802612305
0.067382812500,-0.068710327148,0.062866210938,-0.009857177734,0.015823364258,-0.035003662109
0.065505981445,-0.093841552734,0.031295776367,-0.010147094727,0.020980834961,-0.037124633789
0.061203002930,-0.140213012695,-0.007003784180,-0.008880615234,0.018417358398,-0.036224365234
0.061950683594,-0.157333374023,-0.016006469727,-0.006637573242,0.013229370117,-0.032012939453
0.056625366211,-0.173019409180,-0.010848999023,-0.004608154297,0.001296997070,-0.018081665039
0.054641723633,-0.168518066406,-0.003067016602,-0.004425048828,-0.002532958984,-0.009033203125
0.053390502930,-0.153045654297,0.009658813477,-0.005310058594,-0.005004882813,0.006744384766
0.057220458984,-0.108200073242,0.012252807617,-0.007156372070,-0.004562377930,0.011352539063
0.062393188477,-0.087554931641,0.013412475586,-0.008514404297,-0.003860473633,0.012161254883
0.064544677734,-0.062911987305,0.013946533203,-0.007247924805,-0.003829956055,0.008789062500
0.065093994141,-0.061019897461,0.016479492188,-0.006698608398,-0.004516601563,0.003372192383
0.062088012695,-0.078948974609,0.022964477539,-0.001449584961,-0.006484985352,-0.008529663086
0.059341430664,-0.090118408203,0.025588989258,0.002441406250,-0.007507324219,-0.013229370117
0.055664062500,-0.107635498047,0.029220581055,0.011184692383,-0.009140014648,-0.019409179688
0.052993774414,-0.115707397461,0.028381347656,0.014923095703,-0.009231567383,-0.021026611328
0.047500610352,-0.137451171875,0.027587890625,0.014877319336,-0.006790161133,-0.022552490234
0.046829223633,-0.143371582031,0.022583007813,0.014602661133,-0.004272460938,-0.020599365234
0.043945312500,-0.147644042969,0.012176513672,0.011322021484,0.000518798828,-0.013656616211
0.035522460938,-0.146759033203,-0.001373291016,0.006942749023,0.002471923828,-0.009246826172
0.038513183594,-0.144042968750,-0.011138916016,0.005264282227,0.003479003906,-0.005569458008
0.042541503906,-0.130752563477,-0.025192260742,0.005844116211,0.000839233398,0.000076293945
0.043014526367,-0.124465942383,-0.033477783203,0.009811401367,-0.002105712891,0.001449584961
0.043014526367,-0.109405517578,-0.040817260742,0.014877319336,-0.010589599609,0.002273559570
0.039001464844,-0.103637695313,-0.050201416016,0.019851684570,-0.015197753906,0.001098632813
0.035263061523,-0.094924926758,-0.054580688477,0.029296875000,-0.028915405273,-0.003372192383
0.031158447266,-0.094345092773,-0.052902221680,0.035400390625,-0.036041259766,-0.007400512695
0.026123046875,-0.097351074219,-0.042694091797,0.044448852539,-0.048400878906,-0.017807006836
0.018539428711,-0.120223999023,-0.016082763672,0.044692993164,-0.051559448242,-0.022750854492
0.016952514648,-0.135025024414,-0.000091552734,0.042663574219,-0.052642822266,-0.028656005859
0.014541625977,-0.161621093750,0.030761718750,0.032409667969,-0.047439575195,-0.028427124023
0.016998291016,-0.170028686523,0.042282104492,0.025054931641,-0.041137695313,-0.026016235352
0.020919799805,-0.176483154297,0.058715820313,0.009033203125,-0.024291992188,-0.017044067383
0.022979736328,-0.174774169922,0.062530517578,0.002075195313,-0.014221191406,-0.011642456055
0.022552490234,-0.161010742188,0.040100097656,-0.008392333984,0.006683349609,-0.001846313477
0.019638061523,-0.149475097656,0.017929077148,-0.012161254883,0.015090942383,0.001663208008
0.017639160156,-0.133605957031,-0.015716552734,-0.016235351563,0.022277832031,0.004257202148
0.018280029297,-0.129211425781,-0.027893066406,-0.015213012695,0.021957397461,0.004074096680
0.020156860352,-0.125183105469,-0.034912109375,-0.011779785156,0.016250610352,0.003280639648
0.022903442383,-0.118164062500,-0.038970947266,-0.010482788086,0.012130737305,0.002700805664
0.025009155273,-0.116333007813,-0.035873413086,-0.008972167969,0.007995605469,0.001892089844
0.025405883789,-0.118713378906,-0.024948120117,-0.004943847656,0.000549316406,0.000030517578
0.026962280273,-0.123611450195,-0.017196655273,-0.004791259766,-0.001663208008,-0.000762939453
0.026046752930,-0.129058837891,-0.000686645508,-0.003768920898,-0.004806518555,-0.000564575195
0.025253295898,-0.129669189453,0.006912231445,-0.004486083984,-0.004898071289,0.000015258789
0.024719238281,-0.129821777344,0.016098022461,-0.005859375000,-0.002563476563,0.000793457031
0.025207519531,-0.129226684570,0.016921997070,-0.006347656250,-0.000869750977,0.001098632813
0.025238037109,-0.128585815430,0.015487670898,-0.007049560547,0.002166748047,0.001235961914
0.028137207031,-0.127746582031,0.013336181641,-0.006774902344,0.003417968750,0.001327514648
0.028442382813,-0.126419067383,0.009857177734,-0.006530761719,0.004348754883,0.001708984375

-0.019760131836,-0.212219238281,0.109756469727,0.026336669922,-0.057159423828,-0.023193359375
-0.089492797852,-0.262832641602,0.160675048828,0.054885864258,-0.081298828125,-0.040237426758
-0.168045043945,-0.403488159180,0.229568481445,0.086059570313,-0.110580444336,-0.051025390625
-0.130996704102,-0.437728881836,0.252700805664,0.075973510742,-0.101196289063,-0.021362304688
-0.112182617188,-0.327239990234,0.264755249023,0.057830810547,-0.058471679688,0.079956054688
-0.136169433594,-0.211654663086,0.256347656250,0.040328979492,-0.031784057617,0.123962402344
-0.148925781250,-0.103988647461,0.210861206055,-0.003189086914,0.029861450195,0.174499511719
-0.182495117188,0.066757202148,0.166290283203,-0.025329589844,0.061676025391,0.183029174805
-0.189102172852,0.132080078125,0.129882812500,-0.050033569336,0.091033935547,0.165893554688
-0.183395385742,0.199661254883,0.043701171875,-0.069793701172,0.132736206055,0.144317626953
-0.187362670898,0.213790893555,-0.005584716797,-0.071319580078,0.145614624023,0.122970581055
-0.220855712891,0.250534057617,-0.096862792969,-0.088836669922,0.159896850586,0.086669921875
-0.255325317383,0.263046264648,-0.160293579102,-0.106689453125,0.169158935547,0.073501586914
-0.384765625000,0.229965209961,-0.343688964844,-0.167785644531,0.193801879883,0.012039184570
-0.408065795898,0.172393798828,-0.450424194336,-0.186111450195,0.183349609375,-0.029129028320
-0.380737304688,0.105743408203,-0.499938964844,-0.204437255859,0.068115234375,-0.079635620117
-0.394744873047,-0.008911132813,-0.493942260742,-0.195159912109,-0.025512695313,-0.083786010742
-0.482238769531,-0.033126831055,-0.342788696289,-0.177185058594,-0.123107910156,-0.071701049805
-0.499938964844,-0.009994506836,0.001602172852,-0.153472900391,-0.268325805664,-0.066497802734
-0.499938964844,0.005401611328,0.109039306641,-0.120300292969,-0.300979614258,-0.068038940430
-0.499938964844,0.006835937500,0.249694824219,-0.055175781250,-0.308929443359,-0.099960327148
-0.499938964844,-0.016204833984,0.286148071289,-0.028289794922,-0.289505004883,-0.128280639648
-0.499938964844,-0.134536743164,0.284515380859,-0.006179809570,-0.223052978516,-0.198425292969
-0.499938964844,-0.217315673828,0.269866943359,-0.022888183594,-0.189147949219,-0.228790283203
-0.499938964844,-0.383285522461,0.237854003906,-0.049118041992,-0.136764526367,-0.270462036133
-0.499938964844,-0.477905273437,0.251220703125,-0.069534301758,-0.120086669922,-0.226898193359
-0.499938964844,-0.499938964844,0.226959228516,-0.049423217773,-0.093521118164,-0.132034301758
-0.445404052734,-0.499938964844,0.199859619141,-0.046798706055,-0.071090698242,-0.056320190430
-0.456451416016,-0.412399291992,0.112609863281,-0.054275512695,-0.009185791016,0.118957519531
-0.499938964844,-0.253326416016,0.076400756836,-0.049957275391,0.017868041992,0.184799194336
-0.499938964844,-0.136627197266,0.054550170898,-0.039840698242,0.045867919922,0.246002197266
-0.499938964844,-0.012268066406,0.039535522461,-0.028625488281,0.043533325195,0.246261596680
-0.499938964844,0.010986328125,0.037887573242,-0.012893676758,0.032012939453,0.234039306641
-0.415115356445,0.029678344727,0.043624877930,0.012176513672,0.000366210937,0.197921752930
-0.354980468750,0.026641845703,0.047241210938,0.017272949219,-0.012069702148,0.180572509766
-0.281936645508,0.036041259766,0.086303710938,0.017562866211,-0.029205322266,0.155914306641
-0.247543334961,0.036163330078,0.107269287109,0.021133422852,-0.032897949219,0.144500732422
-0.186706542969,0.017898559570,0.141571044922,0.012786865234,-0.028167724609,0.120590209961
-0.153930664063,0.002899169922,0.146377563477,0.005386352539,-0.019134521484,0.110717773438
-0.137786865234,0.010467529297,0.153198242188,-0.013183593750,0.008666992188,0.105148315430
-0.098587036133,0.025619506836,0.136871337891,-0.007446289063,0.022140502930,0.101867675781
-0.086578369141,0.039886474609,0.119125366211,-0.011978149414,0.037139892578,0.099945068359
-0.070831298828,0.055709838867,0.083831787109,-0.029541015625,0.063812255859,0.086029052734
-0.067840576172,0.054672241211,0.068283081055,-0.029953002930,0.071502685547,0.074493408203
-0.054229736328,0.042266845703,0.034790039063,-0.014221191406,0.078079223633,0.054733276367
-0.046981811523,0.036422729492,0.022232055664,-0.007431030273,0.078704833984,0.047286987305
-0.049407958984,0.031173706055,0.004653930664,0.002105712891,0.076919555664,0.036804199219
-0.043182373047,0.032913208008,-0.004028320313,0.005950927734,0.075698852539,0.034484863281
-0.041015625000,0.040817260742,-0.015213012695,0.002441406250,0.081741333008,0.034225463867
-0.039459228516,0.058074951172,-0.047760009766,-0.007904052734,0.087875366211,0.033432006836
-0.042266845703,0.061874389648,-0.070556640625,-0.019790649414,0.094253540039,0.030487060547
-0.050262451172,0.058731079102,-0.120254516602,-0.049148559570,0.103027343750,0.020370483398
-0.052474975586,0.056259155273,-0.141128540039,-0.063079833984,0.102371215820,0.015335083008
-0.053222656250,0.066177368164,-0.162338256836,-0.078643798828,0.088165283203,0.007507324219
-0.062347412109,0.075851440430,-0.163162231445,-0.080963134766,0.077484130859,0.001724243164
-0.089645385742,0.093902587891,-0.166992187500,-0.085830688477,0.059951782227,-0.015258789063
-0.107803344727,0.090148925781,-0.183563232422,-0.091384887695,0.057525634766,-0.028106689453
-0.152709960938,0.036285400391,-0.218170166016,-0.115478515625,0.050964355469,-0.062225341797
-0.170730590820,-0.006439208984,-0.229583740234,-0.115371704102,0.036163330078,-0.078628540039
-0.206008911133,-0.085815429688,-0.218902587891,-0.103927612305,-0.010772705078,-0.097473144531
-0.226440429688,-0.113693237305,-0.178207397461,-0.094238281250,-0.041442871094,-0.099822998047
-0.253189086914,-0.148651123047,-0.068740844727,-0.074234008789,-0.092849731445,-0.099548339844
-0.269180297852,-0.164535522461,-0.013336181641,-0.064025878906,-0.108581542969,-0.102996826172
-0.284332275391,-0.210433959961,0.065567016602,-0.041610717773,-0.118850708008,-0.110412597656
-0.265670776367,-0.240646362305,0.082427978516,-0.033569335938,-0.111816406250,-0.109069824219
-0.238784790039,-0.302825927734,0.095993041992,-0.035049438477,-0.080215454102,-0.094421386719
-0.191345214844,-0.330718994141,0.094055175781,-0.036270141602,-0.062362670898,-0.081604003906
-0.170425415039,-0.350082397461,0.081207275391,-0.034378051758,-0.028076171875,-0.041458129883
-0.141586303711,-0.335647583008,0.026275634766,-0.034317016602,-0.014358520508,-0.016586303711
-0.139953613281,-0.293701171875,0.004516601563,-0.034805297852,-0.001525878906,0.026046752930
-0.136672973633,-0.207504272461,-0.011169433594,-0.030227661133,-0.003280639648,0.037261962891
-0.129562377930,-0.180313110352,-0.006195068359,-0.018081665039,-0.015823364258,0.044876098633
-0.111358642578,-0.142150878906,0.017486572266,-0.012573242188,-0.023254394531,0.046005249023
-0.107055664063,-0.126449584961,0.032409667969,-0.006591796875,-0.033859252930,0.046417236328
-0.092636108398,-0.094558715820,0.053649902344,-0.006561279297,-0.035354614258,0.046890258789
-0.087982177734,-0.079849243164,0.052413940430,-0.006439208984,-0.033996582031,0.039520263672
-0.070434570313,-0.070571899414,0.041122436523,-0.009780883789,-0.026977539063,0.033157348633
-0.068511962891,-0.075790405273,0.035263061523,-0.004119873047,-0.025894165039,0.016815185547
-0.067047119141,-0.106872558594,0.027389526367,0.006408691406,-0.028594970703,0.010742187500
-0.066436767578,-0.123016357422,0.026809692383,0.009689331055,-0.030380249023,0.007156372070
-0.066543579102,-0.144683837891,0.043182373047,0.009918212891,-0.033782958984,0.006668090820
-0.066146850586,-0.146530151367,0.056228637695,0.008148193359,-0.034194946289,0.008712768555
-0.061325073242,-0.138809204102,0.084304809570,-0.000213623047,-0.029586791992,0.014892578125
-0.060470581055,-0.127471923828,0.090728759766,-0.004898071289,-0.023605346680,0.018066406250
-0.061141967773,-0.108688354492,0.088272094727,-0.010818481445,-0.008468627930,0.020858764648
-0.058456420898,-0.101425170898,0.077529907227,-0.011383056641,-0.000579833984,0.020599365234
-0.053390502930,-0.094726562500,0.043899536133,-0.009185791016,0.011596679688,0.017959594727
-0.050994873047,-0.091873168945,0.026397705078,-0.006805419922,0.014739990234,0.016693115234
-0.046890258789,-0.085266113281,0.001495361328,-0.002044677734,0.014846801758,0.014297485352
-0.046218872070,-0.081954956055,-0.002655029297,-0.001678466797,0.013214111328,0.012924194336
-0.043212890625,-0.079421997070,-0.003402709961,-0.002304077148,0.009872436523,0.008926391602
-0.044555664063,-0.083511352539,0.000305175781,-0.003707885742,0.008621215820,0.006179809570
-0.046340942383,-0.092910766602,0.004241943359,-0.007095336914,0.008316040039,0.001510620117
-0.050903320313,-0.113296508789,0.008209228516,-0.008407592773,0.008865356445,0.000610351563
-0.050643920898,-0.120269775391,0.005584716797,-0.008407592773,0.009811401367,0.001861572266
-0.049209594727,-0.125976562500,-0.001892089844,-0.007354736328,0.009536743164,0.003311157227
-0.047912597656,-0.124816894531,-0.004760742188,-0.005828857422,0.004928588867,0.006988525391
-0.042419433594,-0.111633300781,-0.006149291992,-0.003158569336,0.006576538086,0.008529663086
-0.039825439453,-0.102264404297,-0.004470825195,-0.002090454102,0.005432128906,0.009384155273
-0.036331176758,-0.089752197266,0.000564575195,-0.001998901367,0.003997802734,0.008346557617
-0.035232543945,-0.087936401367,0.003005981445,-0.002548217773,0.003707885742,0.006607055664
-0.035171508789,-0.093612670898,0.007843017578,-0.003341674805,0.003646850586,0.001968383789
-0.035705566406,-0.099975585938,0.009445190430,-0.003189086914,0.003768920898,-0.000015258789
-0.039093017578,-0.110076904297,0.011291503906,-0.001739501953,0.003967285156,-0.002090454102

-0.051269531250,-0.249099731445,0.035858154297,0.001434326172,0.002014160156,-0.002761840820
-0.049179077148,-0.215393066406,0.038467407227,0.005386352539,0.002563476563,0.012954711914
-0.040512084961,-0.093597412109,0.030654907227,0.007705688477,0.007369995117,0.031860351563
-0.032241821289,-0.066726684570,0.017883300781,0.008026123047,0.009674072266,0.028701782227
-0.028015136719,-0.080398559570,-0.008300781250,0.008544921875,0.009201049805,0.012222290039
-0.028808593750,-0.100692749023,-0.011840820313,0.009078979492,0.006484985352,0.005294799805
-0.024642944336,-0.111068725586,-0.006607055664,0.011688232422,-0.000137329102,0.000640869141
-0.020675659180,-0.091506958008,0.010726928711,0.007980346680,-0.002349853516,0.000854492188
-0.022796630859,-0.096420288086,0.013809204102,-0.000778198242,-0.000198364258,-0.004730224609
-0.027008056641,-0.125411987305,0.010177612305,-0.002548217773,0.000610351563,-0.008407592773
-0.019821166992,-0.167205810547,0.019485473633,-0.002639770508,0.000808715820,-0.005447387695
-0.035232543945,-0.176040649414,0.018753051758,-0.004516601563,0.002532958984,-0.000396728516
-0.031524658203,-0.187789916992,-0.021453857422,-0.008438110352,0.003250122070,0.013946533203
-0.034088134766,-0.145828247070,-0.023010253906,-0.011169433594,-0.001312255859,0.021118164063
-0.033325195313,-0.109985351563,0.016921997070,-0.009796142578,-0.010650634766,0.021438598633
-0.024948120117,-0.076599121094,0.036361694336,-0.009811401367,-0.010971069336,0.015853881836
-0.022476196289,-0.092102050781,0.049835205078,-0.011917114258,-0.003265380859,0.004638671875
-0.022903442383,-0.110473632813,0.045303344727,-0.013000488281,0.001831054688,0.001388549805
-0.018920898438,-0.105422973633,0.035293579102,-0.011535644531,0.005981445313,-0.005538940430
-0.018371582031,-0.117034912109,0.032974243164,-0.003906250000,0.009262084961,-0.010009765625
-0.029159545898,-0.131973266602,0.047134399414,0.004531860352,0.010391235352,-0.013824462891
-0.026443481445,-0.164688110352,0.027969360352,0.017440795898,0.017608642578,-0.007705688477
-0.020202636719,-0.145812988281,0.004760742188,0.020339965820,0.019592285156,0.000488281250
-0.023178100586,-0.104766845703,-0.008148193359,0.017074584961,0.015396118164,0.005813598633
-0.028457641602,-0.105194091797,-0.001998901367,0.014633178711,0.011505126953,0.002807617188
-0.023651123047,-0.123062133789,0.002395629883,0.008575439453,0.006500244141,-0.000823974609
-0.022888183594,-0.124481201172,-0.000518798828,0.003967285156,0.005264282227,-0.000518798828
-0.025558471680,-0.124801635742,0.004196166992,-0.005722045898,0.001754760742,0.000228881836
-0.026275634766,-0.130752563477,0.014175415039,-0.007873535156,0.000137329102,0.000518798828
-0.015609741211,-0.129974365234,0.017120361328,-0.007751464844,0.000579833984,0.002410888672
-0.014968872070,-0.117889404297,0.015258789063,-0.007064819336,0.001251220703,0.003082275391
-0.017868041992,-0.118469238281,0.018463134766,-0.002380371094,0.001129150391,0.001037597656
-0.017684936523,-0.127304077148,0.021072387695,0.000366210937,0.001113891602,0.000228881836
-0.021697998047,-0.121139526367,0.028991699219,0.004364013672,0.002639770508,0.000869750977
-0.027053833008,-0.124618530273,0.029586791992,0.006698608398,0.004043579102,0.001419067383
-0.021728515625,-0.132736206055,0.022460937500,0.008926391602,0.007354736328,0.002044677734
0.077453613281,0.037460327148,-0.233291625977,0.002059936523,0.008300781250,0.003433227539
-0.022766113281,0.019256591797,-0.147369384766,-0.049011230469,-0.009552001953,-0.012725830078
-0.042816162109,-0.309722900391,0.139266967773,0.006332397461,-0.040328979492,-0.029983520508
-0.001876831055,-0.179687500000,0.059371948242,-0.017745971680,-0.016006469727,0.002761840820
-0.012969970703,-0.115447998047,-0.029495239258,-0.008697509766,-0.003646850586,0.007781982422
-0.018936157227,-0.033767700195,0.009094238281,-0.010314941406,-0.009307861328,0.005477905273
-0.021453857422,-0.159683227539,0.101211547852,0.003723144531,-0.006378173828,0.008728027344
-0.026321411133,-0.103622436523,0.012359619141,-0.013626098633,0.005538940430,0.032836914063
-0.025177001953,-0.099700927734,0.026672363281,-0.003433227539,0.007568359375,0.022094726563
-0.022506713867,-0.093536376953,0.025131225586,-0.001693725586,0.007995605469,0.018661499023
-0.022399902344,-0.087219238281,0.020233154297,-0.002639770508,0.006622314453,0.012420654297
-0.022750854492,-0.093215942383,0.017578125000,-0.004241943359,0.005020141602,0.009063720703
-0.024749755859,-0.104675292969,0.015625000000,-0.008682250977,0.000823974609,0.002731323242
-0.023818969727,-0.112380981445,0.018615722656,-0.010131835938,-0.001525878906,0.000122070313
-0.020172119141,-0.119537353516,0.024887084961,-0.007400512695,-0.004821777344,-0.000640869141
-0.019729614258,-0.117492675781,0.024902343750,-0.003860473633,-0.005722045898,0.000076293945
-0.017181396484,-0.116897583008,0.025177001953,0.002166748047,-0.007476806641,0.000503540039
-0.016342163086,-0.117370605469,0.023880004883,0.004150390625,-0.007949829102,0.000320434570
-0.013275146484,-0.114746093750,0.031982421875,0.004058837891,-0.007598876953,-0.000793457031
-0.013961791992,-0.115921020508,0.034103393555,0.003982543945,-0.006225585938,-0.001663208008
-0.014434814453,-0.125167846680,0.031753540039,0.004013061523,-0.002227783203,-0.002731323242
-0.014266967773,-0.125473022461,0.028381347656,0.003799438477,-0.000366210937,-0.002273559570
-0.016143798828,-0.125350952148,0.020538330078,0.003112792969,0.001724243164,-0.001632690430
-0.017974853516,-0.127777099609,0.020065307617,0.002700805664,0.001770019531,-0.001647949219
-0.018295288086,-0.135421752930,0.017623901367,0.002304077148,0.001159667969,-0.000946044922
-0.016418457031,-0.134277343750,0.019256591797,0.001937866211,0.000579833984,-0.000076293945
-0.017501831055,-0.129104614258,0.018402099609,0.002166748047,-0.000259399414,0.000854492188
-0.014190673828,-0.123352050781,0.021194458008,0.001419067383,-0.000610351563,0.000320434570
-0.013778686523,-0.120742797852,0.022415161133,0.000701904297,-0.000671386719,-0.000808715820
-0.015029907227,-0.123718261719,0.023468017578,-0.000213623047,-0.000610351563,-0.001174926758
-0.015609741211,-0.127929687500,0.022766113281,0.000595092773,-0.000564575195,-0.001007080078
-0.016647338867,-0.129364013672,0.021697998047,0.000656127930,-0.000717163086,-0.000061035156
-0.016845703125,-0.127777099609,0.020721435547,0.000701904297,-0.001144409180,0.000946044922
-0.015060424805,-0.125167846680,0.023117065430,0.000762939453,-0.001312255859,0.000778198242
-0.015106201172,-0.125396728516,0.025299072266,0.000915527344,-0.000854492188,0.000198364258
-0.016799926758,-0.128829956055,0.023986816406,0.001480102539,-0.000564575195,0.000137329102
-0.015991210938,-0.128784179688,0.024414062500,0.001708984375,-0.000366210937,0.000518798828
-0.017593383789,-0.123107910156,0.021591186523,0.002410888672,-0.000091552734,0.001174926758
-0.017578125000,-0.116622924805,0.021835327148,0.002014160156,-0.000228881836,0.000869750977
-0.020385742188,-0.117919921875,0.021942138672,0.000762939453,-0.000396728516,-0.001358032227
-0.019515991211,-0.124221801758,0.021697998047,0.000305175781,-0.000503540039,-0.001968383789
-0.019378662109,-0.126632690430,0.022171020508,0.000244140625,-0.000671386719,-0.001235961914
-0.018905639648,-0.125061035156,0.022750854492,0.000457763672,-0.000656127930,-0.000839233398
-0.016677856445,-0.125198364258,0.024139404297,0.000762939453,-0.000259399414,-0.000854492188
-0.016479492188,-0.127151489258,0.024597167969,0.000595092773,0.000259399414,-0.000961303711
-0.018585205078,-0.128189086914,0.022155761719,0.000915527344,0.001281738281,-0.000717163086
-0.019393920898,-0.127624511719,0.020553588867,0.001098632813,0.001541137695,-0.000503540039
-0.018630981445,-0.123214721680,0.020660400391,0.001129150391,0.001144409180,-0.000442504883
-0.018463134766,-0.121109008789,0.020614624023,0.001434326172,0.001007080078,-0.000823974609
-0.019042968750,-0.121871948242,0.019485473633,0.001449584961,0.000778198242,-0.001708984375
-0.019317626953,-0.123001098633,0.018829345703,0.001434326172,0.000656127930,-0.001876831055
-0.019104003906,-0.124694824219,0.018264770508,0.001480102539,0.000274658203,-0.001647949219
-0.019622802734,-0.125671386719,0.017608642578,0.001373291016,0.000167846680,-0.001235961914
-0.019714355469,-0.126708984375,0.017501831055,0.000747680664,-0.000198364258,-0.000350952148
-0.019165039063,-0.126205444336,0.017913818359,0.000381469727,-0.000366210937,0.000000000000
-0.019027709961,-0.125717163086,0.017089843750,-0.000274658203,-0.000473022461,0.000030517578
-0.019302368164,-0.126663208008,0.019165039063,-0.000549316406,-0.000534057617,0.000061035156
-0.018814086914,-0.127578735352,0.019744873047,-0.000305175781,-0.000305175781,0.000167846680
-0.019073486328,-0.128524780273,0.020996093750,-0.000228881836,-0.000045776367,0.000244140625
-0.017959594727,-0.128784179688,0.021743774414,-0.000061035156,0.000823974609,0.000488281250
-0.017593383789,-0.127090454102,0.019607543945,0.001022338867,0.001419067383,0.000350952148
-0.018875122070,-0.125183105469,0.017868041992,0.001251220703,0.001739501953,-0.000061035156
-0.017547607422,-0.124252319336,0.018005371094,0.001129150391,0.001586914063,-0.000396728516
-0.018264770508,-0.124832153320,0.016845703125,0.001296997070,0.001525878906,-0.000549316406
-0.017135620117,-0.125076293945,0.017120361328,0.001022338867,0.000930786133,-0.000411987305
-0.017196655273,-0.125061035156,0.017395019531,0.000991821289,0.000595092773,-0.000152587891
-0.015457153320,-0.125381469727,0.019195556641,0.000320434570,0.000030517578,0.000610351563
-0.016387939453,-0.125762939453,0.019973754883,0.000305175781,-0.000030517578,0.000930786133

0.038604736328,-0.207595825195,0.081634521484,-0.008605957031,0.022964477539,0.025039672852
-0.012176513672,-0.190200805664,0.107528686523,-0.003448486328,0.028762817383,0.035552978516
-0.011459350586,-0.159011840820,0.009216308594,-0.007247924805,0.039871215820,0.061172485352
-0.017074584961,-0.162521362305,-0.016571044922,-0.008529663086,0.037979125977,0.055725097656
0.008163452148,-0.124435424805,-0.027938842773,-0.015823364258,0.032821655273,0.059661865234
0.016418457031,-0.129013061523,-0.021743774414,-0.020965576172,0.030273437500,0.056442260742
0.046127319336,-0.153533935547,0.026123046875,-0.023696899414,0.027938842773,0.046432495117
0.068572998047,-0.145111083984,0.061706542969,-0.025024414063,0.031204223633,0.044647216797
0.083557128906,-0.153335571289,0.095825195313,-0.024032592773,0.046997070313,0.049636840820
0.070739746094,-0.111129760742,0.051864624023,-0.022140502930,0.058761596680,0.053512573242
0.055892944336,-0.117828369141,0.024002075195,-0.014068603516,0.055099487305,0.027847290039
0.070846557617,-0.123352050781,-0.072067260742,-0.008041381836,0.024856567383,0.024429321289
0.110214233398,-0.106124877930,0.016662597656,0.001358032227,-0.008605957031,0.028411865234
0.227935791016,-0.137145996094,0.040802001953,0.033660888672,-0.030944824219,0.046051025391
0.152877807617,-0.226348876953,0.201538085938,0.040664672852,-0.075927734375,0.000686645508
0.008102416992,-0.079345703125,0.116104125977,0.049728393555,-0.056564331055,0.024398803711
0.070709228516,-0.079681396484,0.079071044922,0.042984008789,-0.038650512695,0.019195556641
0.053619384766,-0.090423583984,0.015899658203,0.034561157227,-0.015686035156,0.017791748047
0.039978027344,-0.117004394531,-0.004196166992,0.022399902344,-0.016021728516,0.019561767578
0.029510498047,-0.137115478516,-0.026443481445,0.008316040039,-0.025360107422,0.033248901367
0.026901245117,-0.157272338867,-0.024154663086,0.005142211914,-0.034301757813,0.033035278320
-0.024414062500,-0.176071166992,0.021453857422,0.010498046875,-0.061248779297,0.025939941406
-0.049911499023,-0.180603027344,0.065292358398,0.016860961914,-0.075088500977,0.023849487305
-0.002243041992,-0.207427978516,0.212722778320,0.023605346680,-0.088012695313,0.021942138672
0.047439575195,-0.141952514648,0.302780151367,0.020645141602,-0.087341308594,0.032714843750
0.154190063477,-0.004714965820,0.483703613281,-0.003005981445,-0.072067260742,0.036941528320
0.177276611328,0.011306762695,0.499938964844,-0.011795043945,-0.046920776367,0.025177001953
0.135574340820,-0.045822143555,0.499938964844,-0.000137329102,0.037216186523,0.009002685547
-0.055099487305,-0.105224609375,0.359725952148,-0.006164550781,0.073425292969,0.016387939453
-0.136932373047,-0.086715698242,0.256546020508,-0.009384155273,0.121948242188,0.030624389648
-0.307678222656,-0.001907348633,0.074951171875,-0.020019531250,0.136520385742,0.030517578125
-0.341308593750,-0.024566650391,0.008483886719,-0.044250488281,0.145584106445,0.024719238281
-0.333358764648,-0.075424194336,-0.090042114258,-0.095092773438,0.149963378906,0.016891479492
-0.316787719727,-0.090148925781,-0.120666503906,-0.113479614258,0.144363403320,0.010818481445
-0.260513305664,-0.128341674805,-0.205429077148,-0.139160156250,0.122665405273,0.000045776367
-0.220245361328,-0.152618408203,-0.249649047852,-0.149047851563,0.105957031250,-0.004501342773
-0.125045776367,-0.239135742188,-0.426010131836,-0.133026123047,0.065414428711,-0.009841918945
-0.070098876953,-0.219314575195,-0.431610107422,-0.121963500977,0.038024902344,-0.003509521484
-0.071823120117,0.012496948242,-0.243606567383,-0.093597412109,-0.013320922852,0.002182006836
-0.093368530273,0.101470947266,-0.187377929688,-0.084197998047,-0.029296875000,-0.008956909180
-0.056793212891,0.049148559570,-0.098037719727,-0.091903686523,-0.059020996094,-0.045318603516
-0.056503295898,0.000030517578,-0.062286376953,-0.092086791992,-0.068450927734,-0.056213378906
-0.064575195313,-0.093597412109,-0.073455810547,-0.082839965820,-0.076553344727,-0.062820434570
-0.050018310547,-0.152999877930,-0.080169677734,-0.075347900391,-0.081954956055,-0.062438964844
-0.045135498047,-0.209823608398,-0.009155273438,-0.059722900391,-0.096893310547,-0.052398681641
-0.032150268555,-0.226989746094,0.041778564453,-0.052474975586,-0.100723266602,-0.044494628906
-0.010665893555,-0.241592407227,0.128860473633,-0.033111572266,-0.096893310547,-0.027862548828
-0.004013061523,-0.236480712891,0.151077270508,-0.020568847656,-0.090545654297,-0.020706176758
-0.009643554688,-0.225555419922,0.103317260742,0.006362915039,-0.074722290039,-0.009994506836
-0.026504516602,-0.221405029297,0.070495605469,0.014053344727,-0.072525024414,-0.006378173828
-0.028656005859,-0.272033691406,0.057922363281,0.021163940430,-0.078125000000,0.000137329102
-0.032882690430,-0.284774780273,0.090454101563,0.018936157227,-0.083023071289,0.006210327148
-0.042648315430,-0.285522460938,0.177566528320,0.013671875000,-0.086578369141,0.020523071289
-0.040634155273,-0.310394287109,0.208023071289,0.019012451172,-0.084762573242,0.026153564453
-0.047958374023,-0.290222167969,0.269012451172,0.028152465820,-0.077651977539,0.042282104492
-0.051437377930,-0.279602050781,0.285934448242,0.029983520508,-0.071655273438,0.049697875977
-0.047378540039,-0.275970458984,0.343200683594,0.026519775391,-0.059967041016,0.061904907227
-0.064575195313,-0.241027832031,0.378494262695,0.022277832031,-0.052841186523,0.068481445313
-0.066818237305,-0.206481933594,0.381515502930,0.034637451172,-0.027359008789,0.074371337891
-0.059051513672,-0.157836914063,0.301452636719,0.036437988281,-0.015167236328,0.075485229492
-0.078918457031,-0.117706298828,0.254425048828,0.029617309570,-0.006240844727,0.076675415039
-0.078399658203,-0.088500976563,0.232635498047,0.012649536133,0.001525878906,0.073837280273
-0.054519653320,-0.102890014648,0.252349853516,0.002609252930,0.005783081055,0.071487426758
-0.039413452148,-0.150100708008,0.277999877930,-0.019241333008,0.023330688477,0.074172973633
-0.028442382813,-0.158157348633,0.300933837891,-0.027923583984,0.034698486328,0.078674316406
-0.013870239258,-0.128219604492,0.356170654297,-0.036437988281,0.060348510742,0.081298828125
-0.039474487305,-0.097122192383,0.330917358398,-0.034530639648,0.076370239258,0.078292846680
-0.085159301758,-0.049499511719,0.194793701172,-0.007888793945,0.101547241211,0.063034057617
-0.086807250977,-0.038238525391,0.128631591797,0.004302978516,0.103683471680,0.050598144531
-0.071487426758,-0.034072875977,0.045471191406,0.016876220703,0.094146728516,0.029144287109
-0.038681030273,-0.025756835938,0.037628173828,0.016113281250,0.086135864258,0.026351928711
-0.022506713867,-0.038833618164,0.082855224609,0.004333496094,0.067733764648,0.017944335938
0.003036499023,-0.052474975586,0.106384277344,0.000488281250,0.066253662109,0.019012451172
-0.002029418945,-0.054702758789,0.105941772461,0.002197265625,0.068954467773,0.016998291016
-0.020401000977,-0.085876464844,0.022064208984,0.009246826172,0.074111938477,0.016265869141
-0.012512207031,-0.095352172852,-0.002166748047,0.010101318359,0.072113037109,0.016510009766
0.011215209961,-0.091659545898,-0.009674072266,0.004074096680,0.063858032227,0.021987915039
0.001388549805,-0.066101074219,-0.022735595703,0.002319335938,0.060897827148,0.026214599609
0.012115478516,-0.032638549805,-0.031158447266,-0.001235961914,0.054901123047,0.025268554688
0.021865844727,-0.027694702148,-0.031646728516,-0.004226684570,0.051910400391,0.021606445313
0.026550292969,-0.015350341797,-0.039062500000,-0.008087158203,0.044616699219,0.015991210938
0.023834228516,-0.011795043945,-0.039916992188,-0.012298583984,0.040542602539,0.014022827148
0.033187866211,-0.022171020508,-0.050872802734,-0.022720336914,0.034576416016,0.009933471680
0.034500122070,-0.027130126953,-0.058120727539,-0.022216796875,0.031921386719,0.008361816406
0.047012329102,-0.036102294922,-0.075256347656,-0.014892578125,0.026611328125,0.005386352539
0.064041137695,-0.046676635742,-0.071868896484,-0.011734008789,0.022659301758,0.005264282227
0.043365478516,-0.038101196289,-0.077636718750,-0.005416870117,0.016036987305,0.009445190430
0.045318603516,-0.032989501953,-0.088546752930,-0.004531860352,0.013916015625,0.010971069336
0.053192138672,-0.035873413086,-0.091522216797,-0.002273559570,0.009124755859,0.010391235352
0.067306518555,-0.031433105469,-0.089767456055,-0.001388549805,0.007553100586,0.009796142578
0.072891235352,-0.027542114258,-0.091598510742,0.001907348633,0.005767822266,0.005157470703
0.079605102539,-0.024703979492,-0.096954345703,0.000045776367,0.004562377930,0.001693725586
0.083740234375,-0.026260375977,-0.091873168945,-0.006927490234,0.003448486328,-0.002471923828
0.089614868164,-0.028961181641,-0.088378906250,-0.005142211914,0.003646850586,-0.004089355469
0.091323852539,-0.033508300781,-0.089782714844,-0.004119873047,0.003936767578,-0.008850097656
0.096527099609,-0.045730590820,-0.094757080078,-0.003250122070,0.003845214844,-0.010742187500
0.099349975586,-0.051589965820,-0.095901489258,-0.003677368164,0.003143310547,-0.011383056641
0.103973388672,-0.059555053711,-0.094558715820,-0.005432128906,0.000885009766,-0.010040283203
0.104995727539,-0.061355590820,-0.092086791992,-0.006637573242,-0.000534057617,-0.008499145508
0.110321044922,-0.067260742188,-0.080612182617,-0.009582519531,-0.003860473633,-0.004333496094
0.111648559570,-0.067138671875,-0.072708129883,-0.010025024414,-0.006286621094,-0.001953125000
0.116760253906,-0.058425903320,-0.048522949219,-0.009201049805,-0.010314941406,0.001708984375
0.118347167969,-0.055618286133,-0.040725708008,-0.008773803711,-0.010208129883,0.002212524414
0.118240356445,-0.050872802734,-0.028625488281,-0.007293701172,-0.009536743164,0.002899169922

0.159896850586,-0.092056274414,0.084136962891,0.018737792969,0.016784667969,-0.008575439453
0.160736083984,-0.097625732422,0.109970092773,0.021804809570,0.023818969727,-0.009429931641
0.117340087891,-0.104110717773,0.057144165039,0.040908813477,0.049652099609,-0.008728027344
0.077758789063,-0.119110107422,-0.016723632813,0.050582885742,0.062484741211,-0.005554199219
0.011810302734,-0.182586669922,-0.194717407227,0.050811767578,0.075637817383,0.008056640625
-0.011932373047,-0.215530395508,-0.309570312500,0.043777465820,0.075363159180,0.020294189453
-0.064804077148,-0.209579467773,-0.499938964844,0.000900268555,0.049850463867,0.049041748047
-0.126449584961,-0.144210815430,-0.499938964844,-0.021469116211,0.019500732422,0.062911987305
-0.162063598633,-0.096084594727,-0.499938964844,-0.012817382813,-0.063018798828,0.055999755859
-0.210571289063,-0.018508911133,-0.382736206055,0.005599975586,-0.104614257813,0.043273925781
-0.230773925781,-0.018676757813,-0.140731811523,0.027175903320,-0.151443481445,0.029510498047
-0.302902221680,0.040817260742,-0.088638305664,0.026000976563,-0.163360595703,0.029525756836
-0.354675292969,0.091140747070,-0.038314819336,0.012512207031,-0.189834594727,0.026916503906
-0.446945190430,0.093841552734,0.101196289063,0.015670776367,-0.200714111328,0.021713256836
-0.468688964844,0.032836914063,0.193389892578,0.026489257813,-0.204055786133,0.009475708008
-0.377471923828,0.007705688477,0.419158935547,0.049407958984,-0.202819824219,-0.000152587891
-0.272338867188,0.078903198242,0.499938964844,0.043487548828,-0.197555541992,-0.015197753906
-0.107330322266,0.175048828125,0.499938964844,0.058624267578,-0.137161254883,-0.040313720703
-0.114974975586,0.136032104492,0.499938964844,0.066802978516,-0.096008300781,-0.058898925781
-0.123703002930,-0.004714965820,0.438980102539,0.004577636719,-0.004501342773,-0.069290161133
-0.154571533203,-0.024703979492,0.275787353516,-0.012344360352,0.025573730469,-0.061325073242
-0.146179199219,-0.064880371094,0.056610107422,-0.023468017578,0.033477783203,-0.062927246094
-0.123336791992,-0.076141357422,0.037216186523,-0.028930664063,0.022369384766,-0.073028564453
-0.080856323242,-0.111679077148,0.059005737305,-0.017440795898,0.000167846680,-0.072448730469
-0.065643310547,-0.115966796875,0.106735229492,-0.015716552734,-0.007080078125,-0.066589355469
-0.027938842773,-0.109069824219,0.248825073242,-0.014892578125,-0.009078979492,-0.061935424805
-0.016387939453,-0.107025146484,0.298141479492,-0.006423950195,-0.002243041992,-0.062545776367
-0.017135620117,-0.138992309570,0.237075805664,0.024490356445,0.022247314453,-0.065185546875
-0.016525268555,-0.160873413086,0.196426391602,0.031021118164,0.029708862305,-0.065856933594
0.002243041992,-0.191925048828,0.174118041992,0.028411865234,0.033126831055,-0.053573608398
0.006988525391,-0.186462402344,0.182540893555,0.020736694336,0.033752441406,-0.043869018555
0.011795043945,-0.220382690430,0.210418701172,0.016906738281,0.034500122070,-0.036605834961
0.038452148438,-0.235504150391,0.231933593750,0.017623901367,0.036224365234,-0.033447265625
0.048706054688,-0.248199462891,0.246871948242,0.029113769531,0.048385620117,-0.023681640625
0.055404663086,-0.248321533203,0.230087280273,0.039581298828,0.056365966797,-0.017868041992
0.048507690430,-0.235702514648,0.185043334961,0.052017211914,0.072875976563,-0.004226684570
0.049560546875,-0.218246459961,0.074188232422,0.071456909180,0.076705932617,0.001312255859
0.060974121094,-0.222656250000,0.063247680664,0.073883056641,0.075988769531,0.005493164063
