ax,ay,az,gx,gy,gz
-0.017166137695,0.047515869141,0.165359497070,0.049575805664,-0.006057739258,0.006454467773
-0.023712158203,0.069869995117,0.185455322266,0.053649902344,-0.003616333008,0.004501342773
-0.027862548828,0.103912353516,0.215026855469,0.055664062500,0.002441406250,-0.005905151367
-0.034774780273,0.146804809570,0.230895996094,0.047164916992,0.004180908203,-0.013732910156
-0.024017333984,0.167800903320,0.295318603516,0.030227661133,0.004272460938,-0.038665771484
-0.040039062500,0.166030883789,0.375015258789,0.001159667969,0.009017944336,-0.049743652344
-0.058563232422,0.150466918945,0.412979125977,-0.016754150391,0.017562866211,-0.060562133789
-0.113845825195,0.047363281250,0.404632568359,-0.048721313477,0.038940429688,-0.078170776367
-0.128387451172,-0.017822265625,0.435684204102,-0.062332153320,0.051635742188,-0.084823608398
-0.203521728516,-0.112106323242,0.499938964844,-0.065124511719,0.090515136719,-0.093902587891
-0.249237060547,-0.193496704102,0.490432739258,-0.050201416016,0.116348266602,-0.097885131836
-0.304351806641,-0.246170043945,0.429656982422,-0.010498046875,0.163909912109,-0.082641601563
-0.361862182617,-0.296066284180,0.227111816406,0.003906250000,0.181838989258,-0.067916870117
-0.347671508789,-0.296234130859,0.115905761719,0.012527465820,0.192245483398,-0.055145263672
-0.283828735352,-0.282119750977,0.016098022461,0.011856079102,0.188262939453,-0.035140991211
-0.247436523438,-0.280990600586,-0.023284912109,0.015274047852,0.183471679688,-0.028381347656
-0.203033447266,-0.209823608398,-0.111694335938,0.014465332031,0.168792724609,-0.018615722656
-0.183837890625,-0.187393188477,-0.166244506836,0.013198852539,0.159896850586,-0.025619506836
-0.112121582031,-0.227432250977,-0.291702270508,0.000564575195,0.134429931641,-0.029647827148
-0.081375122070,-0.256851196289,-0.335800170898,-0.013336181641,0.115615844727,-0.020034790039
-0.056915283203,-0.291061401367,-0.380981445313,-0.029693603516,0.072631835938,-0.000106811523
-0.023452758789,-0.321990966797,-0.396697998047,-0.041366577148,0.051712036133,0.013809204102
-0.016723632813,-0.297348022461,-0.358535766602,-0.045806884766,0.032424926758,0.027297973633
-0.029098510742,-0.257080078125,-0.280838012695,-0.016983032227,0.001785278320,0.043518066406
-0.036102294922,-0.234329223633,-0.231430053711,-0.006988525391,-0.013107299805,0.051040649414
-0.038101196289,-0.193588256836,-0.155227661133,0.007843017578,-0.036621093750,0.059616088867
-0.046356201172,-0.165084838867,-0.119552612305,0.015075683594,-0.045486450195,0.061065673828
-0.056655883789,-0.122406005859,-0.048843383789,0.030639648438,-0.062133789063,0.064346313477
-0.058654785156,-0.121398925781,-0.029983520508,0.041213989258,-0.068252563477,0.059402465820
-0.060058593750,-0.119689941406,0.016265869141,0.049438476563,-0.079345703125,0.052429199219
-0.078399658203,-0.124359130859,0.042098999023,0.048614501953,-0.082168579102,0.055130004883
-0.089553833008,-0.103851318359,0.058914184570,0.048294067383,-0.083572387695,0.061386108398
-0.105895996094,-0.055892944336,0.078201293945,0.052108764648,-0.083892822266,0.067962646484
-0.104049682617,-0.040420532227,0.089141845703,0.053161621094,-0.082000732422,0.067611694336
-0.091384887695,-0.007659912109,0.111297607422,0.053756713867,-0.080825805664,0.066192626953
-0.090591430664,0.003204345703,0.119125366211,0.053283691406,-0.081100463867,0.064682006836
-0.072814941406,0.041183471680,0.145614624023,0.042053222656,-0.080825805664,0.061447143555
-0.058456420898,0.064041137695,0.162994384766,0.036010742188,-0.080551147461,0.056854248047
-0.050094604492,0.091842651367,0.172775268555,0.026672363281,-0.076217651367,0.043563842773
-0.030303955078,0.086975097656,0.170135498047,0.026626586914,-0.073226928711,0.035873413086
-0.018310546875,0.057373046875,0.183074951172,0.029754638672,-0.070281982422,0.030029296875
-0.005828857422,0.048904418945,0.194427490234,0.028503417969,-0.058563232422,0.029495239258
-0.006195068359,0.053466796875,0.196502685547,0.028671264648,-0.053436279297,0.029891967773
-0.005249023438,0.052978515625,0.193862915039,0.033416748047,-0.043991088867,0.025543212891
0.002655029297,0.055023193359,0.204925537109,0.033142089844,-0.040756225586,0.023422241211
-0.006744384766,0.080245971680,0.237731933594,0.037918090820,-0.035781860352,0.021514892578
0.005920410156,0.073989868164,0.201873779297,0.029434204102,-0.027008056641,0.015930175781
0.007156372070,0.072814941406,0.193939208984,0.013641357422,-0.022384643555,0.012908935547
0.026428222656,0.066955566406,0.222625732422,0.001449584961,-0.022232055664,0.012512207031
0.020950317383,0.052322387695,0.237045288086,0.005584716797,-0.020874023438,0.010009765625
0.021545410156,0.039855957031,0.218429565430,0.005294799805,-0.006469726563,0.008514404297
0.025009155273,0.032638549805,0.209350585938,0.005828857422,-0.001907348633,0.006713867188
0.024841308594,0.035720825195,0.180236816406,0.010818481445,0.005386352539,0.004821777344
0.023696899414,0.032257080078,0.163299560547,0.011230468750,0.007583618164,0.003082275391
0.024566650391,0.026046752930,0.149291992188,0.010406494141,0.008712768555,0.001235961914
0.028060913086,0.008529663086,0.126480102539,0.005813598633,0.008300781250,-0.000122070313
0.026809692383,0.005050659180,0.120040893555,0.003204345703,0.006652832031,0.000717163086
0.025070190430,0.006317138672,0.113693237305,-0.000473022461,0.002517700195,0.002716064453
0.024261474609,0.010604858398,0.117019653320,-0.001449584961,0.000335693359,0.003417968750
0.024749755859,0.012649536133,0.141540527344,-0.003875732422,-0.002853393555,0.004257202148
0.030944824219,0.011260986328,0.156021118164,-0.004135131836,-0.002944946289,0.004180908203
0.033828735352,0.013977050781,0.167205810547,-0.003295898438,-0.001632690430,0.003219604492
0.033905029297,0.021957397461,0.165481567383,-0.000076293945,0.003845214844,0.001922607422
0.031646728516,0.022476196289,0.154296875000,0.000411987305,0.006347656250,0.000534057617
0.029235839844,0.019897460938,0.136672973633,0.000503540039,0.008590698242,-0.001693725586
0.029510498047,0.017272949219,0.130401611328,0.000473022461,0.008773803711,-0.002868652344
0.034179687500,0.003173828125,0.121490478516,-0.001251220703,0.008087158203,-0.004440307617
0.035888671875,-0.000549316406,0.118438720703,-0.002136230469,0.007232666016,-0.004470825195
0.037155151367,-0.004501342773,0.115371704102,-0.002944946289,0.005874633789,-0.004318237305
0.042922973633,-0.008285522461,0.111282348633,-0.003189086914,0.005294799805,-0.004257202148
0.044754028320,-0.011398315430,0.108215332031,-0.003036499023,0.004867553711,-0.004379272461
0.050003051758,-0.017593383789,0.109039306641,-0.002960205078,0.003875732422,-0.004089355469
0.051361083984,-0.018890380859,0.108795166016,-0.002777099609,0.003814697266,-0.003875732422
0.053268432617,-0.019821166992,0.108673095703,-0.002288818359,0.003921508789,-0.003082275391
0.051940917969,-0.016860961914,0.106933593750,-0.001861572266,0.004058837891,-0.002670288086
0.047637939453,-0.012268066406,0.099182128906,-0.000640869141,0.004043579102,-0.002517700195
0.047073364258,-0.012039184570,0.096237182617,-0.000061035156,0.003570556641,-0.002502441406
0.047470092773,-0.009414672852,0.100372314453,-0.000946044922,0.001800537109,-0.001739501953
0.046920776367,-0.008605957031,0.102035522461,-0.001159667969,0.001113891602,-0.001327514648
0.046981811523,-0.007751464844,0.103240966797,-0.001373291016,0.000106811523,-0.000717163086
0.045837402344,-0.003784179688,0.103652954102,-0.001281738281,-0.000305175781,-0.000488281250
0.045959472656,-0.003494262695,0.104019165039,-0.001358032227,-0.001205444336,-0.000198364258
0.047546386719,-0.004608154297,0.112121582031,-0.001922607422,-0.001464843750,-0.000015258789
0.048583984375,-0.005477905273,0.113998413086,-0.001129150391,-0.001296997070,0.000045776367
0.049423217773,-0.002456665039,0.119186401367,0.000015258789,-0.000259399414,-0.000350952148
0.048721313477,-0.001266479492,0.116958618164,0.000869750977,0.000549316406,-0.000778198242
0.046249389648,0.000061035156,0.111938476563,0.001449584961,0.001190185547,-0.001083374023
0.045867919922,-0.000045776367,0.111312866211,0.001129150391,0.001083374023,-0.001129150391
0.046630859375,-0.003585815430,0.111068725586,0.000762939453,0.000579833984,-0.001220703125
0.046569824219,-0.003524780273,0.112060546875,0.000579833984,0.000350952148,-0.001098632813
0.046600341797,-0.004104614258,0.111404418945,0.000610351563,0.000228881836,-0.000701904297
0.046585083008,-0.002609252930,0.111938476563,0.000549316406,0.000045776367,-0.000396728516
0.046569824219,-0.000823974609,0.111190795898,0.000350952148,-0.000167846680,-0.000030517578
0.046005249023,0.000747680664,0.110504150391,-0.000091552734,-0.000244140625,-0.000106811523
0.045440673828,0.002334594727,0.111251831055,-0.000595092773,-0.000457763672,-0.000183105469
0.046966552734,0.000473022461,0.113174438477,-0.000381469727,-0.000732421875,-0.000488281250
0.047164916992,0.000701904297,0.115631103516,-0.000518798828,-0.000823974609,-0.000488281250
0.047668457031,-0.000839233398,0.115890502930,0.000213623047,-0.000274658203,-0.000701904297
0.048599243164,-0.003021240234,0.115356445313,0.000717163086,0.000045776367,-0.000610351563
0.048202514648,-0.002365112305,0.113555908203,0.000961303711,0.000473022461,-0.000503540039
0.047866821289,-0.003158569336,0.112091064453,0.001037597656,0.000503540039,-0.000534057617
0.049194335938,-0.006881713867,0.111816406250,0.000198364258,0.000045776367,-0.000289916992
0.048339843750,-0.004806518555,0.112228393555,-0.000076293945,-0.000228881836,0.000015258789
0.047958374023,-0.002395629883,0.112518310547,-0.000015258789,-0.000488281250,-0.000122070313

0.037826538086,-0.036193847656,0.130355834961,0.000045776367,-0.000640869141,0.004425048828
0.035797119141,-0.046112060547,0.136245727539,0.000839233398,-0.000305175781,0.006500244141
0.048324584961,-0.074645996094,0.133117675781,0.011825561523,0.001678466797,0.011596679688
0.046234130859,-0.070327758789,0.121231079102,0.017257690430,0.002670288086,0.016448974609
0.016967773438,-0.030181884766,0.098556518555,0.025329589844,0.004043579102,0.024505615234
-0.004028320313,-0.007324218750,0.095642089844,0.029739379883,0.003173828125,0.025970458984
-0.018142700195,0.016738891602,0.116699218750,0.037490844727,0.000213623047,0.027145385742
-0.046752929688,0.103302001953,0.183792114258,0.040512084961,0.002349853516,0.027481079102
-0.071426391602,0.184371948242,0.206863403320,0.045196533203,0.006149291992,0.024291992188
-0.120117187500,0.409500122070,0.231521606445,0.059616088867,0.015106201172,0.000900268555
-0.144607543945,0.499938964844,0.257568359375,0.058929443359,0.013748168945,-0.023773193359
-0.212463378906,0.499938964844,0.348434448242,0.011520385742,0.000610351563,-0.075347900391
-0.307235717773,0.499938964844,0.337783813477,-0.020660400391,-0.000411987305,-0.096771240234
-0.349884033203,0.130340576172,0.296493530273,-0.081710815430,-0.006118774414,-0.153732299805
-0.332977294922,-0.038024902344,0.369613647461,-0.129669189453,-0.013244628906,-0.160675048828
-0.194885253906,-0.322372436523,0.499938964844,-0.152648925781,-0.008239746094,-0.155288696289
-0.159988403320,-0.376678466797,0.499938964844,-0.122741699219,0.014785766602,-0.142913818359
-0.176986694336,-0.312133789063,0.247451782227,-0.031005859375,0.074462890625,-0.117782592773
-0.171218872070,-0.303588867188,0.089538574219,-0.000137329102,0.090042114258,-0.112350463867
-0.086120605469,-0.332229614258,-0.000900268555,0.023086547852,0.076354980469,-0.087722778320
-0.037918090820,-0.357009887695,0.068420410156,0.018829345703,0.058670043945,-0.069839477539
0.033477783203,-0.339889526367,0.175704956055,-0.004776000977,0.043273925781,-0.035079956055
0.039703369141,-0.293777465820,0.154968261719,-0.002258300781,0.044021606445,-0.023666381836
0.038619995117,-0.268920898438,0.107284545898,0.014282226563,0.044219970703,-0.012878417969
0.055618286133,-0.252777099609,0.036087036133,0.017868041992,0.040786743164,-0.007873535156
0.061325073242,-0.246154785156,0.024139404297,0.019577026367,0.032485961914,0.008193969727
0.051498413086,-0.210906982422,0.000503540039,0.021102905273,0.030151367188,0.019226074219
0.038192749023,-0.177810668945,-0.017059326172,0.021286010742,0.026794433594,0.028778076172
0.021133422852,-0.130081176758,-0.020843505859,0.023971557617,0.014389038086,0.040161132813
0.021728515625,-0.119705200195,0.014099121094,0.023361206055,0.006805419922,0.043579101563
0.024383544922,-0.074218750000,0.076919555664,0.016815185547,-0.000274658203,0.050964355469
0.019805908203,-0.060913085938,0.062362670898,0.016250610352,0.000976562500,0.053726196289
0.013061523438,-0.032196044922,0.035552978516,0.013000488281,-0.001129150391,0.058807373047
0.010910034180,-0.010604858398,0.037078857422,0.014709472656,-0.004226684570,0.059020996094
0.013961791992,0.006088256836,0.041625976563,0.019912719727,-0.009994506836,0.054351806641
0.012573242188,0.038635253906,0.061874389648,0.023757934570,-0.012176513672,0.051406860352
0.014434814453,0.049179077148,0.076705932617,0.026260375977,-0.013946533203,0.048690795898
0.020797729492,0.060638427734,0.105163574219,0.018524169922,-0.015319824219,0.042053222656
0.024398803711,0.062271118164,0.104690551758,0.016571044922,-0.013885498047,0.038619995117
0.025314331055,0.064468383789,0.083694458008,0.018112182617,-0.011505126953,0.032226562500
0.026367187500,0.061248779297,0.069091796875,0.018646240234,-0.011825561523,0.029876708984
0.026031494141,0.046722412109,0.052261352539,0.015960693359,-0.016479492188,0.029113769531
0.024200439453,0.051864624023,0.064315795898,0.012115478516,-0.020202636719,0.030456542969
0.023376464844,0.067306518555,0.075744628906,0.007659912109,-0.023757934570,0.030822753906
0.018569946289,0.082336425781,0.104965209961,0.005874633789,-0.024276733398,0.029144287109
0.025146484375,0.083282470703,0.126800537109,0.004013061523,-0.024063110352,0.027038574219
0.030776977539,0.088531494141,0.147598266602,0.004226684570,-0.019836425781,0.023574829102
0.029922485352,0.092208862305,0.142547607422,0.003982543945,-0.016281127930,0.021636962891
0.026184082031,0.084182739258,0.126358032227,-0.001403808594,-0.011474609375,0.016571044922
0.030471801758,0.072875976563,0.123321533203,-0.002014160156,-0.010223388672,0.014526367188
0.035568237305,0.071411132813,0.118576049805,0.002334594727,-0.008499145508,0.011230468750
0.037750244141,0.053375244141,0.122650146484,0.001724243164,-0.008300781250,0.009628295898
0.052978515625,0.031921386719,0.146133422852,0.001617431641,-0.009094238281,0.009536743164
0.056793212891,0.032730102539,0.148132324219,0.005737304688,-0.008163452148,0.009277343750
0.059661865234,0.035140991211,0.142807006836,0.010116577148,-0.005874633789,0.009597778320
0.058212280273,0.028778076172,0.142517089844,0.010772705078,-0.005676269531,0.009445190430
0.058105468750,0.026168823242,0.141448974609,0.012237548828,-0.005493164063,0.009109497070
0.051757812500,0.017532348633,0.137863159180,0.012481689453,-0.005218505859,0.009185791016
0.049850463867,0.008117675781,0.137725830078,0.012023925781,-0.005096435547,0.009841918945
0.039459228516,0.027481079102,0.135223388672,0.011444091797,-0.003341674805,0.013107299805
0.032562255859,0.031433105469,0.129043579102,0.009338378906,-0.002197265625,0.013275146484
0.030624389648,0.030593872070,0.117065429688,0.007019042969,-0.001022338867,0.012374877930
0.027572631836,0.031295776367,0.106719970703,0.007263183594,-0.000427246094,0.012023925781
0.026153564453,0.025238037109,0.093505859375,0.006423950195,-0.000167846680,0.010406494141
0.024093627930,0.028762817383,0.092056274414,0.006896972656,-0.000823974609,0.010101318359
0.020553588867,0.031448364258,0.089309692383,0.005432128906,-0.002777099609,0.009155273438
0.018951416016,0.033096313477,0.094543457031,0.004058837891,-0.005157470703,0.008804321289
0.018722534180,0.033493041992,0.103576660156,0.003707885742,-0.007919311523,0.008422851563
0.021102905273,0.040618896484,0.126220703125,0.004013061523,-0.011886596680,0.008422851563
0.021041870117,0.041336059570,0.138366699219,0.002929687500,-0.012802124023,0.007980346680
0.019912719727,0.036117553711,0.157958984375,0.000915527344,-0.011383056641,0.005889892578
0.021942138672,0.032653808594,0.160278320313,0.002502441406,-0.009033203125,0.004791259766
0.022674560547,0.034576416016,0.153381347656,0.005874633789,-0.003372192383,0.003738403320
0.021331787109,0.032028198242,0.146560668945,0.006729125977,-0.000869750977,0.002853393555
0.020339965820,0.027343750000,0.138076782227,0.007843017578,0.002182006836,0.000915527344
0.020553588867,0.031509399414,0.124130249023,0.008316040039,0.003067016602,0.000015258789
0.022338867188,0.031051635742,0.107406616211,0.007522583008,0.004058837891,-0.001113891602
0.020980834961,0.016464233398,0.103012084961,0.003784179688,0.001052856445,-0.002227783203
0.026947021484,0.005538940430,0.111557006836,0.002761840820,-0.000915527344,-0.002288818359
0.030090332031,0.009963989258,0.124588012695,0.001296997070,-0.002883911133,-0.001281738281
0.030227661133,0.009201049805,0.126403808594,0.000839233398,-0.002822875977,-0.000946044922
0.030364990234,0.010848999023,0.130874633789,0.000030517578,-0.001480102539,0.000122070313
0.029373168945,0.013122558594,0.128540039063,0.000335693359,-0.000427246094,0.000396728516
0.027893066406,0.014648437500,0.125228881836,0.000732421875,0.001007080078,0.000381469727
0.027877807617,0.016113281250,0.122680664063,0.000900268555,0.001525878906,0.000183105469
0.026672363281,0.017517089844,0.120941162109,0.000305175781,0.001770019531,-0.000350952148
0.027160644531,0.007217407227,0.119323730469,0.000183105469,0.001831054688,-0.000305175781
0.027832031250,0.008758544922,0.118103027344,0.000991821289,0.002075195313,0.000198364258
0.026382446289,0.014389038086,0.114959716797,0.002151489258,0.002563476563,0.000762939453
0.025924682617,0.011672973633,0.113723754883,0.002609252930,0.002624511719,0.000732421875
0.026214599609,0.011886596680,0.112289428711,0.001831054688,0.001922607422,0.001129150391
0.026123046875,0.013656616211,0.113037109375,0.001068115234,0.001419067383,0.001327514648
0.025680541992,0.014266967773,0.113067626953,0.000762939453,0.000732421875,0.001159667969
0.025817871094,0.011962890625,0.115646362305,0.001052856445,0.000442504883,0.001007080078
0.026107788086,0.011764526367,0.116256713867,0.000823974609,0.000213623047,0.000839233398
0.025619506836,0.017120361328,0.121246337891,-0.000778198242,-0.000488281250,0.000656127930
0.025329589844,0.017745971680,0.120574951172,-0.000396728516,-0.000457763672,0.000289916992
0.026611328125,0.013702392578,0.120834350586,0.000457763672,-0.000183105469,-0.000305175781
0.027297973633,0.012054443359,0.119216918945,0.000854492188,0.000061035156,-0.000366210937
0.026672363281,0.011077880859,0.115646362305,0.001083374023,0.000289916992,-0.000305175781
0.027160644531,0.008499145508,0.115463256836,0.001007080078,0.000091552734,-0.000213623047
0.028030395508,0.008804321289,0.116195678711,0.000305175781,-0.000350952148,0.000442504883
0.027404785156,0.011566162109,0.116683959961,0.000000000000,-0.000534057617,0.000534057617
0.027938842773,0.010757446289,0.118225097656,-0.000244140625,-0.000640869141,0.000610351563

-0.031906127930,0.082336425781,0.108795166016,0.021835327148,-0.005340576172,0.002426147461
-0.039001464844,0.096374511719,0.147994995117,0.016006469727,-0.009216308594,0.000106811523
-0.060607910156,0.188537597656,0.209945678711,0.015686035156,-0.005630493164,-0.004837036133
-0.080947875977,0.253158569336,0.210311889648,0.019943237305,0.000701904297,-0.011535644531
-0.127105712891,0.352890014648,0.196624755859,0.022979736328,0.012512207031,-0.033447265625
-0.141021728516,0.336334228516,0.182342529297,0.017028808594,0.015289306641,-0.050872802734
-0.156173706055,0.349227905273,0.201263427734,-0.013305664063,0.012542724609,-0.077590942383
-0.207290649414,0.290786743164,0.205001831055,-0.028182983398,0.012435913086,-0.094039916992
-0.225860595703,0.223495483398,0.207305908203,-0.042068481445,0.010955810547,-0.121841430664
-0.244384765625,0.100997924805,0.250808715820,-0.074905395508,0.002304077148,-0.131637573242
-0.237731933594,0.033157348633,0.323364257813,-0.086929321289,-0.003570556641,-0.138977050781
-0.186630249023,-0.125167846680,0.446929931641,-0.092239379883,0.002029418945,-0.141601562500
-0.188293457031,-0.163345336914,0.440475463867,-0.081588745117,0.019348144531,-0.130783081055
-0.211288452148,-0.182250976563,0.233215332031,-0.031158447266,0.058044433594,-0.111999511719
-0.201995849609,-0.191986083984,0.163070678711,-0.007644653320,0.061935424805,-0.106521606445
-0.107681274414,-0.308517456055,0.252990722656,0.006790161133,0.048049926758,-0.102249145508
-0.055801391602,-0.341842651367,0.335617065430,0.002716064453,0.045562744141,-0.095642089844
-0.034515380859,-0.365310668945,0.289382934570,0.017929077148,0.065383911133,-0.069641113281
-0.009414672852,-0.379104614258,0.177825927734,0.029495239258,0.075653076172,-0.055175781250
0.026840209961,-0.392181396484,-0.004592895508,0.032775878906,0.071899414063,-0.036621093750
0.046569824219,-0.357604980469,-0.046310424805,0.030532836914,0.064025878906,-0.018814086914
0.057830810547,-0.270767211914,-0.050857543945,0.023864746094,0.045089721680,0.011047363281
0.049987792969,-0.226593017578,-0.046554565430,0.022521972656,0.038101196289,0.021591186523
0.042327880859,-0.189941406250,-0.049072265625,0.022476196289,0.027206420898,0.035614013672
0.036392211914,-0.129928588867,-0.040512084961,0.022567749023,0.020828247070,0.040435791016
0.035903930664,-0.109252929688,-0.026245117188,0.022918701172,0.014816284180,0.043365478516
0.038360595703,-0.082061767578,0.016708374023,0.025848388672,0.005065917969,0.044982910156
0.037261962891,-0.069396972656,0.036636352539,0.026702880859,0.001968383789,0.045074462891
0.040603637695,-0.063232421875,0.032897949219,0.026580810547,-0.000320434570,0.046020507813
0.038284301758,-0.056350708008,0.024291992188,0.023803710938,-0.001937866211,0.048065185547
0.029373168945,-0.025512695313,0.023208618164,0.022201538086,-0.006698608398,0.049621582031
0.027084350586,-0.015991210938,0.018524169922,0.024749755859,-0.008926391602,0.048431396484
0.025878906250,-0.004928588867,0.021575927734,0.025192260742,-0.014739990234,0.043930053711
0.027221679688,-0.005493164063,0.019195556641,0.026046752930,-0.016693115234,0.041320800781
0.031646728516,-0.025253295898,0.018661499023,0.022018432617,-0.020706176758,0.039291381836
0.032318115234,-0.010269165039,0.024734497070,0.019943237305,-0.022460937500,0.041580200195
0.028686523438,0.000915527344,0.022079467773,0.020401000977,-0.023178100586,0.041793823242
0.019470214844,0.011978149414,0.009414672852,0.019012451172,-0.025482177734,0.040832519531
0.018951416016,0.015792846680,0.030700683594,0.017227172852,-0.029312133789,0.040115356445
0.020996093750,0.022903442383,0.047729492188,0.042098999023,-0.032806396484,0.039642333984
0.023330688477,0.027053833008,0.018966674805,0.043350219727,-0.034240722656,0.039367675781
0.018356323242,0.048629760742,0.106262207031,0.010162353516,-0.041229248047,0.037719726563
0.017730712891,0.062377929688,0.116989135742,0.015228271484,-0.037857055664,0.037521362305
0.005844116211,0.096191406250,0.140823364258,0.021224975586,-0.031784057617,0.033416748047
0.036437988281,0.112686157227,0.148757934570,0.024139404297,-0.029617309570,0.030395507813
0.017135620117,0.079071044922,0.150039672852,0.009063720703,-0.019348144531,0.016098022461
0.032180786133,0.072067260742,0.138336181641,0.004425048828,-0.020889282227,0.017242431641
0.032363891602,0.075302124023,0.144775390625,0.002578735352,-0.021575927734,0.016662597656
0.042480468750,0.031112670898,0.143127441406,-0.002014160156,-0.017105102539,0.013671875000
0.045654296875,0.022827148438,0.137802124023,0.000045776367,-0.013900756836,0.014389038086
0.046127319336,0.018844604492,0.119812011719,0.005889892578,-0.008819580078,0.015808105469
0.046005249023,0.018692016602,0.107543945313,0.007156372070,-0.007919311523,0.016860961914
0.031539916992,0.020614624023,0.098480224609,0.006378173828,-0.009078979492,0.017410278320
0.031997680664,0.017608642578,0.108139038086,0.005599975586,-0.010406494141,0.016738891602
0.030044555664,0.019836425781,0.124496459961,-0.000808715820,-0.014694213867,0.017898559570
0.025222778320,0.042770385742,0.146697998047,-0.003921508789,-0.015686035156,0.019348144531
0.020111083984,0.048980712891,0.150573730469,-0.005111694336,-0.015396118164,0.019668579102
0.016967773438,0.059082031250,0.155334472656,0.000244140625,-0.013275146484,0.017730712891
0.013931274414,0.064544677734,0.158218383789,0.002639770508,-0.012115478516,0.015960693359
0.015792846680,0.060974121094,0.148132324219,0.002731323242,-0.009429931641,0.011337280273
0.016937255859,0.048171997070,0.143692016602,0.001480102539,-0.008895874023,0.010086059570
0.021942138672,0.052276611328,0.141036987305,0.004684448242,-0.005950927734,0.009170532227
0.017395019531,0.058578491211,0.135528564453,0.007720947266,-0.003234863281,0.007476806641
0.017196655273,0.053848266602,0.117675781250,0.011398315430,0.000442504883,0.002105712891
0.018051147461,0.044891357422,0.115081787109,0.010879516602,0.000610351563,-0.000076293945
0.018829345703,0.039703369141,0.111312866211,0.009567260742,0.000000000000,-0.001708984375
0.025085449219,0.025650024414,0.114959716797,0.006286621094,-0.003173828125,-0.002716064453
0.029190063477,0.016311645508,0.125854492188,0.004272460938,-0.005630493164,-0.002899169922
0.035537719727,0.001296997070,0.144332885742,0.000564575195,-0.007980346680,-0.001907348633
0.036590576172,-0.003799438477,0.131256103516,0.001068115234,-0.007431030273,0.000228881836
0.035980224609,0.011383056641,0.151321411133,-0.000320434570,-0.009582519531,0.005874633789
0.033767700195,0.016296386719,0.160705566406,0.000839233398,-0.009384155273,0.007003784180
0.027404785156,0.034957885742,0.160919189453,0.002624511719,-0.005020141602,0.006851196289
0.022125244141,0.041259765625,0.149230957031,0.004516601563,-0.001693725586,0.005661010742
0.020324707031,0.043029785156,0.135971069336,0.007064819336,0.002532958984,0.001998901367
0.018966674805,0.034729003906,0.119354248047,0.007354736328,0.003250122070,0.000717163086
0.018142700195,0.032623291016,0.115417480469,0.006744384766,0.003189086914,0.000122070313
0.016494750977,0.026443481445,0.110366821289,0.005325317383,0.002014160156,-0.000427246094
0.016540527344,0.019821166992,0.109756469727,0.004348754883,0.000961303711,-0.000335693359
0.017562866211,0.020355224609,0.114013671875,0.003097534180,-0.000869750977,0.000610351563
0.017532348633,0.019393920898,0.115081787109,0.002365112305,-0.001525878906,0.000823974609
0.018280029297,0.017089843750,0.120925903320,0.001403808594,-0.002395629883,0.000823974609
0.018157958984,0.015548706055,0.124679565430,0.000946044922,-0.002258300781,0.000457763672
0.019546508789,0.014373779297,0.126373291016,0.001754760742,-0.000869750977,-0.000610351563
0.018814086914,0.011947631836,0.118591308594,0.002227783203,-0.000427246094,-0.000946044922
0.019027709961,0.005859375000,0.120208740234,0.002426147461,-0.000747680664,-0.001083374023
0.023773193359,0.004653930664,0.130279541016,0.001358032227,-0.001861572266,-0.000228881836
0.023529052734,0.005874633789,0.130661010742,0.000503540039,-0.001678466797,0.000335693359
0.024017333984,0.008026123047,0.125717163086,0.000579833984,-0.000762939453,0.000503540039
0.023864746094,0.007568359375,0.123245239258,0.000381469727,-0.000320434570,0.000411987305
0.023651123047,0.009765625000,0.119049072266,0.001052856445,0.000076293945,0.000244140625
0.023620605469,0.011138916016,0.117721557617,0.000991821289,0.000122070313,0.000244140625
0.023437500000,0.013122558594,0.117965698242,0.000564575195,-0.000228881836,0.000045776367
0.022766113281,0.015960693359,0.118225097656,0.000686645508,-0.000274658203,-0.000274658203
0.023162841797,0.014129638672,0.118148803711,0.000930786133,-0.000381469727,-0.000579833984
0.023498535156,0.009872436523,0.120712280273,0.000244140625,-0.000656127930,-0.000534057617
0.024719238281,0.008422851563,0.122817993164,0.000595092773,-0.000610351563,-0.000274658203
0.023651123047,0.013351440430,0.123855590820,0.001052856445,-0.000122070313,0.000427246094
0.023406982422,0.013092041016,0.124801635742,0.000625610352,0.000045776367,0.000320434570
0.022491455078,0.015151977539,0.124450683594,0.000091552734,0.000534057617,0.000152587891
0.021743774414,0.015304565430,0.122680664063,0.000335693359,0.000869750977,-0.000045776367
0.021530151367,0.013458251953,0.118865966797,0.000411987305,0.001251220703,-0.000442504883
0.021179199219,0.013000488281,0.117263793945,0.000045776367,0.001220703125,-0.000518798828
0.020965576172,0.011978149414,0.115676879883,0.000595092773,0.001052856445,-0.000534057617

0.034942626953,-0.023300170898,0.142715454102,0.003387451172,0.001525878906,0.003219604492
0.037109375000,-0.027206420898,0.146575927734,0.005722045898,0.003570556641,0.004898071289
0.031387329102,-0.008483886719,0.140213012695,0.014160156250,0.009567260742,0.008255004883
0.021377563477,-0.000183105469,0.125991821289,0.017028808594,0.012268066406,0.008361816406
0.008804321289,0.010375976563,0.114929199219,0.018753051758,0.013107299805,0.007614135742
-0.011474609375,0.035476684570,0.074600219727,0.020156860352,0.011245727539,0.006637573242
-0.027633666992,0.050079345703,0.073760986328,0.017181396484,0.006500244141,0.006866455078
-0.058227539063,0.105377197266,0.120895385742,0.011581420898,-0.004287719727,0.006301879883
-0.076797485352,0.159118652344,0.162384033203,0.007400512695,-0.008285522461,0.004577636719
-0.122924804688,0.357864379883,0.271942138672,0.005050659180,-0.006835937500,-0.006622314453
-0.140716552734,0.405364990234,0.282241821289,0.016830444336,-0.000411987305,-0.021484375000
-0.175354003906,0.434112548828,0.304092407227,0.012207031250,0.015289306641,-0.059707641602
-0.207580566406,0.387161254883,0.284500122070,0.008758544922,0.024261474609,-0.079925537109
-0.231369018555,0.296783447266,0.266693115234,-0.020645141602,0.035812377930,-0.115051269531
-0.235900878906,0.146896362305,0.272003173828,-0.038909912109,0.037796020508,-0.122329711914
-0.234222412109,0.085632324219,0.289215087891,-0.069885253906,0.041320800781,-0.126419067383
-0.196807861328,-0.054000854492,0.339843750000,-0.070755004883,0.046142578125,-0.129531860352
-0.174240112305,-0.083999633789,0.384490966797,-0.059524536133,0.055541992188,-0.132263183594
-0.183181762695,-0.134262084961,0.356552124023,-0.021362304688,0.088027954102,-0.127624511719
-0.217514038086,-0.122283935547,0.281555175781,-0.007125854492,0.102767944336,-0.118774414063
-0.243545532227,-0.181304931641,0.178451538086,0.021102905273,0.117996215820,-0.111328125000
-0.227691650391,-0.244171142578,0.187911987305,0.025131225586,0.118316650391,-0.109603881836
-0.151062011719,-0.438369750977,0.175186157227,0.021728515625,0.120925903320,-0.088897705078
-0.089080810547,-0.499938964844,0.118484497070,0.013000488281,0.119461059570,-0.067352294922
0.014953613281,-0.499938964844,-0.003219604492,0.004989624023,0.104370117188,-0.033828735352
0.034484863281,-0.499938964844,-0.055999755859,0.012420654297,0.099868774414,-0.024429321289
0.026657104492,-0.389160156250,-0.142349243164,0.043899536133,0.086349487305,0.002243041992
0.006164550781,-0.315841674805,-0.185592651367,0.048156738281,0.076538085938,0.017181396484
-0.013961791992,-0.185913085938,-0.200027465820,0.035568237305,0.049331665039,0.036880493164
-0.011169433594,-0.143310546875,-0.176834106445,0.032730102539,0.033782958984,0.038604736328
-0.004150390625,-0.086532592773,-0.139312744141,0.036193847656,0.012329101563,0.037277221680
0.003250122070,-0.072372436523,-0.135391235352,0.040618896484,0.006225585938,0.035446166992
0.006958007813,-0.065643310547,-0.133346557617,0.044937133789,-0.007537841797,0.035308837891
0.010284423828,-0.064270019531,-0.113769531250,0.048736572266,-0.013992309570,0.036254882813
0.007949829102,-0.055023193359,-0.098022460938,0.048400878906,-0.020874023438,0.037094116211
0.010253906250,-0.049697875977,-0.061676025391,0.044494628906,-0.031570434570,0.037017822266
0.009994506836,-0.049301147461,-0.042922973633,0.039596557617,-0.034835815430,0.035934448242
0.009857177734,-0.041656494141,-0.025405883789,0.032196044922,-0.038101196289,0.033462524414
0.010574340820,-0.042816162109,-0.025924682617,0.029800415039,-0.039062500000,0.031158447266
0.015197753906,-0.030334472656,-0.031616210938,0.027069091797,-0.041336059570,0.026702880859
0.013809204102,-0.030761718750,-0.041107177734,0.026214599609,-0.042190551758,0.024566650391
0.018783569336,-0.025024414063,-0.046142578125,0.019088745117,-0.047546386719,0.027755737305
0.016998291016,-0.024856567383,-0.047912597656,0.022842407227,-0.052917480469,0.027908325195
0.010253906250,-0.016937255859,-0.038284301758,0.023788452148,-0.059646606445,0.032043457031
0.003524780273,-0.010116577148,-0.029159545898,0.024139404297,-0.064056396484,0.033142089844
-0.001647949219,0.003250122070,0.013320922852,0.021362304688,-0.071166992188,0.034759521484
-0.009704589844,0.003540039063,0.032699584961,0.024597167969,-0.072189331055,0.034118652344
-0.013000488281,0.011962890625,0.051528930664,0.029327392578,-0.072006225586,0.030426025391
-0.012695312500,0.019226074219,0.083999633789,0.029251098633,-0.070343017578,0.028457641602
-0.010360717773,0.017913818359,0.102279663086,0.028488159180,-0.068817138672,0.026657104492
-0.000030517578,0.023818969727,0.137756347656,0.030105590820,-0.064117431641,0.023422241211
0.006027221680,0.029266357422,0.147644042969,0.031539916992,-0.060348510742,0.021911621094
0.019134521484,0.025070190430,0.165466308594,0.023254394531,-0.053588867188,0.019760131836
0.021484375000,0.027648925781,0.169616699219,0.020065307617,-0.050094604492,0.019515991211
0.021591186523,0.042602539063,0.181472778320,0.019607543945,-0.042572021484,0.016296386719
0.022079467773,0.040649414063,0.183639526367,0.019912719727,-0.038619995117,0.013153076172
0.029495239258,0.018005371094,0.162796020508,0.022293090820,-0.031402587891,0.010528564453
0.029403686523,0.019683837891,0.159576416016,0.020797729492,-0.029876708984,0.011306762695
0.023010253906,0.022583007813,0.139358520508,0.020141601563,-0.028259277344,0.009429931641
0.023803710938,0.014633178711,0.157608032227,0.022369384766,-0.031692504883,0.007385253906
0.022201538086,0.007980346680,0.140884399414,0.008911132813,-0.027908325195,0.005599975586
0.006607055664,0.022903442383,0.153823852539,-0.012252807617,-0.033767700195,0.010086059570
0.007690429688,0.019195556641,0.169265747070,-0.014343261719,-0.035598754883,0.011505126953
0.010787963867,0.029815673828,0.201156616211,-0.014984130859,-0.032592773438,0.013168334961
0.008026123047,0.042709350586,0.214294433594,-0.016876220703,-0.025878906250,0.011367797852
0.002136230469,0.056121826172,0.199478149414,-0.016387939453,-0.011077880859,0.006668090820
-0.003082275391,0.056854248047,0.181945800781,-0.014724731445,-0.005371093750,0.004531860352
-0.006500244141,0.041137695313,0.139495849609,-0.009490966797,0.001327514648,0.000656127930
-0.012176513672,0.044326782227,0.121383666992,-0.007476806641,0.002105712891,-0.000381469727
-0.008239746094,0.046752929688,0.086196899414,-0.004379272461,-0.004913330078,-0.005767822266
0.016403198242,0.008041381836,0.113494873047,-0.006011962891,-0.016387939453,-0.009460449219
0.061935424805,-0.050689697266,0.271606445313,-0.008270263672,-0.036087036133,-0.008956909180
0.068298339844,-0.058792114258,0.316162109375,-0.010681152344,-0.033233642578,-0.002273559570
0.055206298828,0.029266357422,0.328765869141,-0.013885498047,-0.012313842773,0.008316040039
0.023803710938,0.039993286133,0.270935058594,-0.003280639648,0.005966186523,0.007125854492
0.010711669922,0.024429321289,0.202209472656,0.019515991211,0.031539916992,0.000885009766
-0.004196166992,0.015365600586,0.088714599609,0.021728515625,0.036361694336,0.000244140625
-0.009201049805,0.021347045898,0.049972534180,0.020629882813,0.036117553711,0.001037597656
-0.016159057617,0.035430908203,0.007507324219,0.010757446289,0.025527954102,0.001632690430
-0.013107299805,0.034500122070,0.005081176758,0.005142211914,0.016555786133,0.000991821289
-0.002578735352,0.028045654297,0.050155639648,-0.002578735352,-0.002258300781,0.000930786133
0.001312255859,0.029357910156,0.075378417969,-0.005111694336,-0.007690429688,0.000656127930
0.011779785156,0.021286010742,0.117904663086,-0.006851196289,-0.012329101563,-0.001342773438
0.015747070313,0.014923095703,0.135559082031,-0.007217407227,-0.012664794922,-0.002197265625
0.026733398438,0.000747680664,0.155639648438,-0.002700805664,-0.009460449219,-0.002624511719
0.029754638672,0.000122070313,0.158935546875,-0.000762939453,-0.006866455078,-0.002075195313
0.029861450195,0.008239746094,0.151931762695,0.001678466797,-0.001220703125,-0.001235961914
0.027328491211,0.010040283203,0.140991210938,0.003158569336,0.001129150391,-0.001449584961
0.027755737305,0.009063720703,0.130615234375,0.003997802734,0.003311157227,-0.001754760742
0.027389526367,0.010223388672,0.116027832031,0.004089355469,0.003601074219,-0.001678466797
0.026947021484,0.010421752930,0.110534667969,0.004119873047,0.003540039063,-0.001693725586
0.027206420898,0.010055541992,0.104888916016,0.002441406250,0.001968383789,-0.001770019531
0.026885986328,0.011199951172,0.104232788086,0.001022338867,0.000671386719,-0.001510620117
0.029098510742,0.006240844727,0.115203857422,-0.000045776367,-0.001541137695,-0.001235961914
0.030181884766,0.005477905273,0.121154785156,-0.000259399414,-0.001831054688,-0.001022338867
0.029266357422,0.005996704102,0.128311157227,-0.000534057617,-0.001220703125,-0.000137329102
0.028656005859,0.004974365234,0.129837036133,-0.000045776367,-0.000656127930,0.000167846680
0.027709960938,-0.003845214844,0.127563476563,0.000854492188,0.000549316406,0.000793457031
0.025878906250,0.006408691406,0.127319335938,-0.000045776367,0.001007080078,0.001571655273
0.023880004883,0.009674072266,0.124832153320,-0.001007080078,0.001586914063,0.001632690430
0.021606445313,0.011093139648,0.119293212891,-0.000427246094,0.002014160156,0.001174926758
0.021774291992,0.009384155273,0.116012573242,0.000030517578,0.001998901367,0.000549316406
0.020965576172,0.007583618164,0.114227294922,0.000274658203,0.001266479492,0.000183105469
0.020675659180,0.008926391602,0.114425659180,0.000579833984,0.000961303711,0.000213623047

-0.044525146484,0.064147949219,0.118255615234,0.006744384766,-0.002151489258,0.003738403320
-0.059829711914,0.092346191406,0.125854492188,0.009475708008,-0.002700805664,0.001770019531
-0.104782104492,0.194549560547,0.167190551758,0.011596679688,-0.004760742188,-0.005142211914
-0.124725341797,0.267700195313,0.195007324219,0.014755249023,-0.004867553711,-0.011749267578
-0.147003173828,0.301254272461,0.230667114258,0.030593872070,-0.001876831055,-0.035614013672
-0.155685424805,0.331329345703,0.252334594727,0.026611328125,0.001327514648,-0.048721313477
-0.172363281250,0.378738403320,0.260345458984,0.014221191406,0.014022827148,-0.081024169922
-0.233001708984,0.292678833008,0.200714111328,0.005645751953,0.020690917969,-0.103012084961
-0.228088378906,0.178421020508,0.202819824219,-0.005279541016,0.021255493164,-0.121887207031
-0.200180053711,0.027740478516,0.238922119141,-0.038024902344,0.019577026367,-0.137222290039
-0.179260253906,-0.024719238281,0.253952026367,-0.042572021484,0.020889282227,-0.137756347656
-0.167816162109,-0.111923217773,0.222122192383,-0.042160034180,0.028717041016,-0.126647949219
-0.154327392578,-0.171936035156,0.199523925781,-0.041961669922,0.031127929688,-0.117721557617
-0.090774536133,-0.273818969727,0.169891357422,-0.030700683594,0.034042358398,-0.098144531250
-0.065826416016,-0.298507690430,0.161209106445,-0.021713256836,0.035949707031,-0.087707519531
-0.039215087891,-0.317047119141,0.183273315430,-0.009918212891,0.037231445313,-0.068695068359
-0.022964477539,-0.334945678711,0.196182250977,0.000518798828,0.037918090820,-0.061721801758
0.001388549805,-0.316665649414,0.202026367188,0.021682739258,0.043380737305,-0.043029785156
0.012084960938,-0.307128906250,0.184280395508,0.028503417969,0.047439575195,-0.031829833984
0.048110961914,-0.298934936523,0.121459960938,0.028793334961,0.050170898438,-0.015289306641
0.064468383789,-0.307159423828,0.087097167969,0.031997680664,0.048675537109,-0.009582519531
0.063446044922,-0.285766601563,0.043289184570,0.033325195313,0.048980712891,-0.001083374023
0.065307617188,-0.237792968750,-0.012771606445,0.034042358398,0.045730590820,0.002670288086
0.058334350586,-0.204956054688,-0.025009155273,0.034164428711,0.037139892578,0.019119262695
0.047332763672,-0.150848388672,-0.045242309570,0.026153564453,0.031524658203,0.027847290039
0.048049926758,-0.140029907227,-0.044189453125,0.017898559570,0.025421142578,0.031768798828
0.037704467773,-0.111541748047,-0.028793334961,0.009307861328,0.012298583984,0.037155151367
0.035980224609,-0.100631713867,-0.017807006836,0.008834838867,0.007034301758,0.040054321289
0.029571533203,-0.080841064453,0.005371093750,0.006469726563,-0.000488281250,0.044265747070
0.028915405273,-0.075012207031,0.013290405273,0.006637573242,-0.003005981445,0.045013427734
0.027435302734,-0.070816040039,0.017410278320,0.012893676758,-0.006439208984,0.044677734375
0.030441284180,-0.069076538086,0.021774291992,0.016921997070,-0.008468627930,0.044662475586
0.029556274414,-0.051986694336,0.025802612305,0.027664184570,-0.012115478516,0.044937133789
0.025161743164,-0.033142089844,0.023391723633,0.027023315430,-0.011840820313,0.044921875000
0.017517089844,-0.022186279297,0.035339355469,0.028060913086,-0.016983032227,0.040237426758
0.018386840820,-0.011672973633,0.044631958008,0.025665283203,-0.018341064453,0.037857055664
0.018280029297,-0.006332397461,0.042266845703,0.022827148438,-0.019821166992,0.036437988281
0.018142700195,-0.012710571289,0.038055419922,0.021560668945,-0.025131225586,0.034729003906
0.019912719727,-0.005859375000,0.033050537109,0.019515991211,-0.027908325195,0.035461425781
0.014266967773,0.014663696289,0.049407958984,0.008728027344,-0.035034179688,0.035171508789
0.010528564453,0.025100708008,0.067703247070,0.006072998047,-0.038162231445,0.034088134766
0.012100219727,0.029144287109,0.109680175781,0.006469726563,-0.039627075195,0.032241821289
0.009658813477,0.042129516602,0.119323730469,0.009033203125,-0.038360595703,0.031127929688
0.011947631836,0.047943115234,0.141357421875,0.013671875000,-0.034408569336,0.026596069336
0.016067504883,0.043746948242,0.145935058594,0.011367797852,-0.031051635742,0.022628784180
0.019210815430,0.034500122070,0.145614624023,0.008087158203,-0.028427124023,0.019897460938
0.028823852539,0.013092041016,0.132400512695,0.003387451172,-0.024429321289,0.019104003906
0.030960083008,0.017990112305,0.126846313477,0.001907348633,-0.022689819336,0.019866943359
0.028778076172,0.027511596680,0.120162963867,-0.000930786133,-0.020401000977,0.020706176758
0.029067993164,0.026565551758,0.125030517578,-0.002151489258,-0.019363403320,0.020278930664
0.027069091797,0.027175903320,0.126678466797,0.003280639648,-0.016448974609,0.018981933594
0.029357910156,0.026123046875,0.129913330078,0.004501342773,-0.015350341797,0.018264770508
0.027145385742,0.033340454102,0.131820678711,0.001007080078,-0.015533447266,0.019073486328
0.021942138672,0.022979736328,0.126388549805,0.000198364258,-0.015213012695,0.019058227539
0.021759033203,0.003326416016,0.123535156250,-0.000289916992,-0.015884399414,0.021606445313
0.025177001953,0.025085449219,0.128036499023,0.001770019531,-0.016235351563,0.024154663086
0.012512207031,0.052474975586,0.132186889648,0.001052856445,-0.016906738281,0.024993896484
0.003372192383,0.067916870117,0.146469116211,-0.002212524414,-0.018539428711,0.019332885742
0.005996704102,0.055603027344,0.156219482422,-0.002761840820,-0.018432617188,0.015686035156
0.004638671875,0.052062988281,0.166946411133,-0.001785278320,-0.014556884766,0.013763427734
0.006790161133,0.050415039063,0.162521362305,-0.000213623047,-0.011199951172,0.012939453125
0.009918212891,0.043533325195,0.144119262695,0.000946044922,-0.005020141602,0.012145996094
0.008850097656,0.040100097656,0.132003784180,0.003341674805,-0.003265380859,0.011367797852
0.007827758789,0.040313720703,0.114700317383,0.002059936523,-0.002380371094,0.009185791016
0.005493164063,0.044204711914,0.111923217773,0.002014160156,-0.003326416016,0.007843017578
0.010833740234,0.036239624023,0.115463256836,0.001846313477,-0.005096435547,0.003967285156
0.023361206055,0.015548706055,0.135238647461,0.004089355469,-0.004638671875,0.002960205078
0.027557373047,0.010879516602,0.134140014648,0.006347656250,-0.002716064453,0.002075195313
0.029663085938,0.000503540039,0.129684448242,0.002212524414,-0.000076293945,0.001052856445
0.028915405273,0.000045776367,0.135040283203,0.002365112305,-0.000167846680,0.001632690430
0.032516479492,0.003723144531,0.135162353516,0.005508422852,-0.000808715820,0.002059936523
0.037094116211,-0.001174926758,0.142776489258,0.005584716797,-0.002075195313,0.001754760742
0.039916992188,-0.008880615234,0.170654296875,0.006057739258,-0.004623413086,0.002090454102
0.039932250977,-0.006423950195,0.179901123047,0.004959106445,-0.004791259766,0.002792358398
0.036041259766,-0.001449584961,0.182601928711,0.001464843750,-0.001800537109,0.003799438477
0.025741577148,0.003234863281,0.156845092773,0.002365112305,0.000793457031,0.004043579102
0.018615722656,0.008407592773,0.141632080078,0.002777099609,0.003051757813,0.004531860352
0.007904052734,0.017135620117,0.115356445313,0.003417968750,0.004989624023,0.004791259766
0.003677368164,0.023651123047,0.106689453125,0.003616333008,0.004623413086,0.004653930664
0.000442504883,0.025283813477,0.098205566406,0.001205444336,0.002548217773,0.002899169922
0.001495361328,0.021926879883,0.100173950195,0.000549316406,0.001037597656,0.001815795898
0.006973266602,0.012512207031,0.110778808594,-0.000137329102,-0.001327514648,0.000122070313
0.009017944336,0.004684448242,0.111877441406,-0.000640869141,-0.001907348633,-0.000228881836
0.012985229492,0.001022338867,0.117477416992,-0.000900268555,-0.002792358398,0.000213623047
0.015213012695,0.004150390625,0.123535156250,-0.000411987305,-0.002685546875,0.000167846680
0.016616821289,-0.002014160156,0.125305175781,-0.000442504883,-0.002639770508,-0.000213623047
0.020736694336,-0.002212524414,0.131271362305,0.000488281250,-0.001953125000,-0.000076293945
0.020599365234,-0.000076293945,0.128158569336,0.000854492188,-0.001052856445,-0.000076293945
0.018402099609,0.004562377930,0.123977661133,0.000808715820,0.000183105469,-0.000366210937
0.018234252930,-0.000030517578,0.121200561523,0.001159667969,0.000518798828,-0.000549316406
0.018646240234,0.004455566406,0.119491577148,0.000961303711,0.000534057617,0.000228881836
0.017959594727,0.005996704102,0.118331909180,0.000793457031,0.000595092773,0.000320434570
0.019699096680,0.006942749023,0.119537353516,0.001190185547,0.000518798828,0.000183105469
0.019348144531,0.007217407227,0.118652343750,0.001022338867,0.000396728516,0.000061035156
0.019744873047,0.005905151367,0.120986938477,0.000564575195,0.000213623047,-0.000503540039
0.020797729492,0.005523681641,0.123947143555,0.000625610352,0.000213623047,-0.000625610352
0.020950317383,0.004241943359,0.124404907227,0.000457763672,0.000228881836,-0.000885009766
0.021347045898,0.001525878906,0.125289916992,-0.000228881836,0.000427246094,-0.000854492188
0.020629882813,0.001220703125,0.122894287109,0.000137329102,0.000686645508,-0.000579833984
0.020706176758,0.001205444336,0.124206542969,-0.000152587891,0.000854492188,-0.000015258789
0.020004272461,0.003341674805,0.123535156250,0.000717163086,0.001342773438,0.000213623047
0.017471313477,0.005844116211,0.117172241211,0.001281738281,0.002059936523,0.000015258789
0.017837524414,0.005081176758,0.113952636719,0.001037597656,0.001831054688,-0.000183105469
0.017105102539,0.006790161133,0.112411499023,-0.000671386719,0.000549316406,-0.000396728516

0.002532958984,0.080764770508,0.117218017578,0.030288696289,-0.002334594727,0.004318237305
0.000534057617,0.090621948242,0.137832641602,0.035354614258,-0.004272460938,0.004837036133
-0.024688720703,0.174179077148,0.225677490234,0.033966064453,-0.003921508789,0.001449584961
-0.046890258789,0.275268554688,0.286254882813,0.030319213867,-0.000366210937,-0.002563476563
-0.093750000000,0.415069580078,0.305023193359,0.035308837891,0.018920898438,-0.027465820313
-0.125122070313,0.421279907227,0.278564453125,0.021530151367,0.027755737305,-0.046295166016
-0.169799804688,0.378829956055,0.238952636719,-0.006622314453,0.035232543945,-0.087783813477
-0.219360351563,0.204101562500,0.142562866211,-0.020004272461,0.033798217773,-0.105865478516
-0.224304199219,0.112228393555,0.158889770508,-0.043045043945,0.025390625000,-0.126144409180
-0.174606323242,-0.092315673828,0.227401733398,-0.082321166992,0.007232666016,-0.127899169922
-0.127258300781,-0.190994262695,0.300918579102,-0.093032836914,0.002609252930,-0.122711181641
-0.045516967773,-0.292755126953,0.450881958008,-0.082885742188,0.020156860352,-0.100143432617
-0.064346313477,-0.267471313477,0.405578613281,-0.054290771484,0.045028686523,-0.086029052734
-0.108505249023,-0.178359985352,0.219589233398,0.011169433594,0.084457397461,-0.069198608398
-0.107696533203,-0.184402465820,0.176040649414,0.026489257813,0.089050292969,-0.064682006836
-0.052215576172,-0.265258789063,0.198593139648,0.022232055664,0.081329345703,-0.054382324219
-0.033859252930,-0.275436401367,0.224716186523,0.011413574219,0.078903198242,-0.045104980469
-0.022384643555,-0.275253295898,0.135635375977,0.015975952148,0.084533691406,-0.026062011719
-0.016876220703,-0.273406982422,0.076705932617,0.019500732422,0.083419799805,-0.017333984375
0.015182495117,-0.241134643555,0.009658813477,0.016464233398,0.072006225586,0.000823974609
0.021621704102,-0.213714599609,-0.016387939453,0.017440795898,0.066772460938,0.009170532227
0.022628784180,-0.180236816406,-0.035980224609,0.019943237305,0.054840087891,0.020309448242
0.023437500000,-0.138305664063,-0.057083129883,0.022506713867,0.047042846680,0.022125244141
0.023483276367,-0.123077392578,-0.059005737305,0.023376464844,0.038970947266,0.027008056641
0.029434204102,-0.092376708984,-0.060394287109,0.024261474609,0.023513793945,0.028503417969
0.030273437500,-0.076126098633,-0.062301635742,0.026214599609,0.016220092773,0.029876708984
0.032394409180,-0.064880371094,-0.050598144531,0.029174804688,0.002532958984,0.031372070313
0.034820556641,-0.072052001953,-0.041122436523,0.029647827148,-0.003555297852,0.031494140625
0.038558959961,-0.070251464844,-0.026443481445,0.028228759766,-0.012863159180,0.033050537109
0.036956787109,-0.069396972656,-0.022994995117,0.028640747070,-0.016830444336,0.034439086914
0.031219482422,-0.052093505859,-0.013214111328,0.025115966797,-0.024856567383,0.038970947266
0.024032592773,-0.038299560547,-0.009216308594,0.025054931641,-0.028579711914,0.040374755859
0.019104003906,-0.008346557617,0.004486083984,0.028762817383,-0.035049438477,0.039001464844
0.014572143555,-0.027938842773,0.021316528320,0.032394409180,-0.038925170898,0.036132812500
0.011428833008,-0.006256103516,0.053848266602,0.026687622070,-0.044876098633,0.037521362305
0.009826660156,0.005462646484,0.068801879883,0.024047851563,-0.046539306641,0.036376953125
0.008407592773,0.033493041992,0.079666137695,0.018188476563,-0.046127319336,0.031982421875
0.011215209961,0.031478881836,0.083847045898,0.016174316406,-0.045120239258,0.028289794922
0.016754150391,0.022613525391,0.087951660156,0.014114379883,-0.039993286133,0.022903442383
0.021438598633,0.018188476563,0.097229003906,0.006378173828,-0.041061401367,0.022796630859
0.023162841797,0.029602050781,0.092559814453,0.006744384766,-0.038925170898,0.023422241211
0.023040771484,0.044387817383,0.088104248047,0.009826660156,-0.037597656250,0.022048950195
0.023452758789,0.040039062500,0.096740722656,0.007278442383,-0.038635253906,0.020950317383
0.028762817383,0.037170410156,0.117980957031,0.002243041992,-0.038970947266,0.019485473633
0.031219482422,0.040374755859,0.120605468750,0.002944946289,-0.037628173828,0.019683837891
0.034774780273,0.046401977539,0.125259399414,0.006988525391,-0.035003662109,0.017547607422
0.034698486328,0.037612915039,0.134597778320,0.007781982422,-0.034027099609,0.015823364258
0.033203125000,0.023025512695,0.141754150391,0.012939453125,-0.031875610352,0.016448974609
0.040313720703,0.028518676758,0.130065917969,0.012588500977,-0.031143188477,0.016540527344
0.029144287109,0.040435791016,0.126373291016,0.006881713867,-0.031311035156,0.017623901367
0.021286010742,0.050842285156,0.141921997070,-0.002853393555,-0.031753540039,0.016571044922
0.019607543945,0.050704956055,0.154907226563,-0.005554199219,-0.031387329102,0.015640258789
0.020080566406,0.039688110352,0.169876098633,-0.007431030273,-0.028091430664,0.013717651367
0.020889282227,0.042312622070,0.188018798828,-0.008117675781,-0.025344848633,0.013839721680
0.008728027344,0.069152832031,0.207305908203,-0.003341674805,-0.013381958008,0.014602661133
0.003448486328,0.074981689453,0.195312500000,-0.000747680664,-0.005950927734,0.013046264648
-0.000961303711,0.071609497070,0.158462524414,0.003341674805,0.004394531250,0.007537841797
0.001052856445,0.060043334961,0.134246826172,0.003463745117,0.006912231445,0.004547119141
0.001419067383,0.053527832031,0.118392944336,0.001953125000,0.004501342773,0.001007080078
0.010375976563,0.038009643555,0.108215332031,0.000366210937,-0.000137329102,-0.000808715820
0.019622802734,0.029495239258,0.119522094727,-0.002166748047,-0.005905151367,-0.002258300781
0.039733886719,-0.008224487305,0.160751342773,-0.007369995117,-0.018035888672,-0.005523681641
0.050918579102,-0.026245117188,0.211318969727,-0.008331298828,-0.023071289063,-0.005477905273
0.048080444336,-0.014022827148,0.248672485352,-0.004333496094,-0.016647338867,0.000228881836
0.039871215820,-0.009597778320,0.237152099609,-0.003372192383,-0.009155273438,0.003173828125
0.019561767578,0.010253906250,0.192138671875,0.002182006836,0.005493164063,0.005722045898
0.011718750000,0.015014648438,0.149749755859,0.009140014648,0.012313842773,0.005508422852
0.002334594727,0.015670776367,0.083557128906,0.010162353516,0.017868041992,0.005035400391
-0.001251220703,0.021804809570,0.062438964844,0.007110595703,0.017547607422,0.005889892578
-0.003829956055,0.024932861328,0.045394897461,0.002380371094,0.010818481445,0.006713867188
-0.005386352539,0.026763916016,0.046493530273,0.001068115234,0.005081176758,0.006240844727
-0.003829956055,0.024993896484,0.056228637695,0.000732421875,-0.000518798828,0.005477905273
-0.003234863281,0.025909423828,0.105651855469,-0.003631591797,-0.009536743164,0.004074096680
-0.002563476563,0.026062011719,0.126831054688,-0.004928588867,-0.011184692383,0.003021240234
0.005828857422,0.014755249023,0.151016235352,-0.004821777344,-0.009735107422,0.000518798828
0.009063720703,0.009292602539,0.157913208008,-0.002563476563,-0.007629394531,0.000335693359
0.011627197266,0.012496948242,0.161544799805,0.002227783203,-0.002059936523,0.001419067383
0.010559082031,0.017654418945,0.151123046875,0.004196166992,0.000656127930,0.001647949219
0.008697509766,0.023727416992,0.132156372070,0.004608154297,0.003784179688,0.000289916992
0.009582519531,0.023696899414,0.123153686523,0.004470825195,0.004470825195,-0.000808715820
0.010787963867,0.021743774414,0.115722656250,0.000396728516,0.004119873047,-0.002639770508
0.014862060547,0.013381958008,0.107421875000,0.002365112305,0.003112792969,-0.003341674805
0.017486572266,0.012237548828,0.109283447266,0.001373291016,0.001831054688,-0.003524780273
0.022705078125,0.007827758789,0.114807128906,0.001373291016,0.000091552734,-0.003768920898
0.024963378906,0.004013061523,0.119216918945,0.000488281250,-0.000473022461,-0.003646850586
0.029174804688,0.000305175781,0.122634887695,0.001632690430,-0.000503540039,-0.002502441406
0.028503417969,0.002090454102,0.122085571289,0.002410888672,-0.000076293945,-0.001861572266
0.029174804688,-0.001480102539,0.123184204102,0.003158569336,0.000503540039,-0.001037597656
0.028320312500,-0.001358032227,0.122543334961,0.002639770508,0.000579833984,-0.000396728516
0.026794433594,0.001480102539,0.124328613281,0.000366210937,0.000320434570,0.000457763672
0.023803710938,0.004577636719,0.125503540039,0.000137329102,0.000259399414,0.000671386719
0.022232055664,0.005538940430,0.125503540039,0.000427246094,0.000274658203,0.000823974609
0.019714355469,0.006652832031,0.122421264648,0.001770019531,0.001159667969,0.000778198242
0.018356323242,0.007827758789,0.117691040039,0.002029418945,0.001495361328,0.000823974609
0.015060424805,0.010772705078,0.115783691406,0.001144409180,0.001022338867,0.000549316406
0.014862060547,0.010986328125,0.116943359375,0.001098632813,0.000640869141,0.000244140625
0.014526367188,0.009506225586,0.116180419922,0.000061035156,0.000015258789,-0.000091552734
0.012985229492,0.007080078125,0.118896484375,-0.001098632813,-0.000366210937,-0.000061035156
0.014007568359,0.005538940430,0.121597290039,-0.000854492188,-0.000442504883,0.000320434570
0.013168334961,0.009811401367,0.122558593750,0.000274658203,-0.000381469727,0.000518798828
0.012924194336,0.010253906250,0.124145507813,0.000579833984,-0.000289916992,0.000534057617
0.015121459961,0.007324218750,0.125045776367,0.001312255859,0.000076293945,0.000320434570
0.014984130859,0.007354736328,0.123779296875,0.001083374023,0.000366210937,0.000320434570
0.015289306641,0.009002685547,0.122604370117,0.001358032227,0.000564575195,0.000061035156

-0.020492553711,0.049407958984,0.153259277344,0.000885009766,-0.000030517578,0.002517700195
-0.035202026367,0.073532104492,0.156127929688,0.003448486328,0.001708984375,0.001846313477
-0.072601318359,0.135681152344,0.167312622070,0.006408691406,0.004013061523,-0.003128051758
-0.094207763672,0.173461914063,0.178176879883,0.006240844727,0.004470825195,-0.008682250977
-0.104598999023,0.219009399414,0.188842773438,0.010055541992,0.005371093750,-0.025054931641
-0.120208740234,0.238021850586,0.194961547852,0.010482788086,0.006225585938,-0.034164428711
-0.120666503906,0.252777099609,0.196502685547,0.011672973633,0.009201049805,-0.053359985352
-0.151947021484,0.248626708984,0.162963867188,0.010360717773,0.012908935547,-0.065933227539
-0.174133300781,0.239227294922,0.136108398438,0.006225585938,0.016006469727,-0.078292846680
-0.165802001953,0.141067504883,0.074462890625,-0.001449584961,0.014587402344,-0.099166870117
-0.168960571289,0.094711303711,0.057220458984,-0.014038085938,0.011901855469,-0.104553222656
-0.164596557617,0.005279541016,0.116439819336,-0.040069580078,-0.008972167969,-0.109054565430
-0.139266967773,-0.070358276367,0.174057006836,-0.056671142578,-0.019088745117,-0.108901977539
-0.107620239258,-0.096649169922,0.238372802734,-0.065979003906,-0.025817871094,-0.098388671875
-0.101394653320,-0.095718383789,0.229965209961,-0.053970336914,-0.020812988281,-0.091934204102
-0.074401855469,-0.164215087891,0.190002441406,-0.037765502930,-0.011993408203,-0.083068847656
-0.073501586914,-0.177841186523,0.176239013672,-0.033218383789,-0.009216308594,-0.076782226563
-0.067367553711,-0.180908203125,0.181228637695,-0.018463134766,-0.007797241211,-0.063278198242
-0.060150146484,-0.163528442383,0.224731445313,-0.013732910156,-0.008178710938,-0.059555053711
-0.025619506836,-0.191879272461,0.252548217773,0.006439208984,0.003295898438,-0.055297851563
-0.002914428711,-0.221710205078,0.225982666016,0.012985229492,0.012008666992,-0.051406860352
0.018783569336,-0.225357055664,0.235641479492,0.007400512695,0.025207519531,-0.038833618164
0.029525756836,-0.208419799805,0.260848999023,0.009628295898,0.030273437500,-0.032501220703
0.038238525391,-0.211318969727,0.202331542969,0.022796630859,0.047149658203,-0.022338867188
0.043670654297,-0.217300415039,0.162567138672,0.025878906250,0.051803588867,-0.014724731445
0.044738769531,-0.209869384766,0.127929687500,0.028961181641,0.053192138672,0.003143310547
0.045410156250,-0.185623168945,0.073730468750,0.031188964844,0.051528930664,0.011306762695
0.047012329102,-0.176452636719,0.059722900391,0.033142089844,0.048889160156,0.019271850586
0.041961669922,-0.138702392578,0.052169799805,0.029724121094,0.043197631836,0.033828735352
0.040084838867,-0.133529663086,0.062850952148,0.025756835938,0.040145874023,0.037811279297
0.029876708984,-0.104232788086,0.075057983398,0.013366699219,0.037109375000,0.043792724609
0.015151977539,-0.080657958984,0.048919677734,0.011398315430,0.036880493164,0.048019409180
0.026306152344,-0.055023193359,-0.000122070313,0.007217407227,0.029724121094,0.048446655273
0.027862548828,-0.052398681641,-0.003219604492,0.009506225586,0.023864746094,0.046905517578
0.030929565430,-0.051986694336,-0.001708984375,0.016693115234,0.014114379883,0.045349121094
0.027481079102,-0.039001464844,0.025405883789,0.021072387695,0.010742187500,0.045928955078
0.025924682617,-0.024200439453,0.026031494141,0.026748657227,0.009536743164,0.046203613281
0.027297973633,-0.021484375000,0.007720947266,0.034133911133,0.005523681641,0.044311523438
0.025939941406,-0.018844604492,0.019973754883,0.035293579102,0.001525878906,0.043716430664
0.023895263672,-0.007812500000,0.033737182617,0.041381835938,-0.004638671875,0.044342041016
0.021423339844,0.004364013672,0.040176391602,0.038284301758,-0.008285522461,0.045394897461
0.020828247070,0.015747070313,0.047592163086,0.022140502930,-0.015121459961,0.044464111328
0.018142700195,0.018585205078,0.057296752930,0.016540527344,-0.018844604492,0.043319702148
0.015014648438,0.029968261719,0.074737548828,0.019927978516,-0.023895263672,0.043106079102
0.011489868164,0.037307739258,0.077072143555,0.022155761719,-0.023956298828,0.042190551758
0.005508422852,0.037002563477,0.104965209961,0.017013549805,-0.026733398438,0.041030883789
-0.002105712891,0.060195922852,0.118576049805,0.019302368164,-0.026412963867,0.040298461914
-0.003524780273,0.072082519531,0.126754760742,0.024719238281,-0.021896362305,0.034469604492
-0.004547119141,0.083541870117,0.135192871094,0.032745361328,-0.019668579102,0.029708862305
0.001464843750,0.079559326172,0.139663696289,0.032180786133,-0.018402099609,0.024703979492
0.015884399414,0.043930053711,0.131515502930,0.023071289063,-0.015762329102,0.017166137695
0.019012451172,0.029342651367,0.129425048828,0.017227172852,-0.013717651367,0.014282226563
0.010238647461,0.061996459961,0.137710571289,0.010284423828,-0.016021728516,0.018234252930
0.009902954102,0.066909790039,0.144317626953,0.006729125977,-0.015487670898,0.016708374023
0.013580322266,0.047119140625,0.148056030273,0.002792358398,-0.012924194336,0.010269165039
0.016372680664,0.034576416016,0.142501831055,0.004043579102,-0.010772705078,0.008956909180
0.017883300781,0.024917602539,0.127685546875,0.006759643555,-0.005828857422,0.007995605469
0.012023925781,0.043197631836,0.103790283203,0.008270263672,-0.003189086914,0.007232666016
0.017166137695,0.049148559570,0.085449218750,0.007812500000,-0.002380371094,0.001754760742
0.016159057617,0.050582885742,0.076858520508,0.004531860352,-0.009567260742,0.000427246094
0.036392211914,0.037933349609,0.086990356445,0.007034301758,-0.016845703125,-0.002883911133
0.084899902344,-0.035797119141,0.260864257813,0.004592895508,-0.034973144531,-0.006423950195
0.078109741211,-0.045913696289,0.350234985352,-0.005233764648,-0.034057617188,-0.001708984375
0.054870605469,0.008728027344,0.337936401367,-0.011306762695,-0.013809204102,0.007003784180
0.035736083984,0.032379150391,0.280334472656,-0.005050659180,-0.002731323242,0.009490966797
0.009307861328,0.041473388672,0.148132324219,0.011779785156,0.017364501953,0.008377075195
0.000122070313,0.042602539063,0.096939086914,0.014038085938,0.021453857422,0.007263183594
-0.002014160156,0.041122436523,0.058059692383,0.012786865234,0.018142700195,0.005096435547
0.001144409180,0.036407470703,0.022247314453,0.010391235352,0.012191772461,0.003555297852
0.011764526367,0.028594970703,0.025863647461,0.006561279297,0.005325317383,0.001556396484
0.019271850586,0.016784667969,0.071777343750,-0.003372192383,-0.007293701172,-0.000030517578
0.024993896484,0.006744384766,0.094711303711,-0.006546020508,-0.010925292969,-0.000823974609
0.033004760742,-0.009292602539,0.143402099609,-0.008377075195,-0.013931274414,-0.001129150391
0.036361694336,-0.014205932617,0.162368774414,-0.007019042969,-0.012985229492,-0.001007080078
0.037185668945,-0.011352539063,0.178558349609,-0.003173828125,-0.007308959961,-0.000259399414
0.036453247070,-0.011108398438,0.173263549805,-0.000457763672,-0.003341674805,-0.000061035156
0.031555175781,-0.008712768555,0.141952514648,0.004638671875,0.003326416016,0.000396728516
0.029693603516,-0.006591796875,0.125137329102,0.006393432617,0.005218505859,0.000671386719
0.027343750000,0.000411987305,0.096969604492,0.005691528320,0.005416870117,0.000671386719
0.023376464844,0.003417968750,0.089202880859,0.003402709961,0.003845214844,0.000137329102
0.024307250977,-0.000411987305,0.088043212891,0.001602172852,0.001678466797,-0.000244140625
0.025451660156,-0.000183105469,0.099502563477,-0.001586914063,-0.002044677734,-0.000076293945
0.026977539063,-0.002319335938,0.108337402344,-0.002166748047,-0.003326416016,-0.000137329102
0.029388427734,-0.002456665039,0.125152587891,-0.002349853516,-0.004562377930,0.000091552734
0.029876708984,-0.001403808594,0.135070800781,-0.002853393555,-0.004531860352,0.000213623047
0.029678344727,-0.001388549805,0.141632080078,-0.001388549805,-0.002304077148,0.000015258789
0.028030395508,-0.000900268555,0.139251708984,-0.000396728516,-0.000793457031,-0.000122070313
0.025115966797,0.000137329102,0.124313354492,0.001693725586,0.001815795898,-0.000076293945
0.022552490234,0.003417968750,0.117645263672,0.001968383789,0.002212524414,0.000045776367
0.022354125977,0.003738403320,0.108856201172,0.001998901367,0.001495361328,-0.000350952148
0.023208618164,0.002990722656,0.106658935547,0.001449584961,0.000778198242,-0.000564575195
0.024627685547,0.001846313477,0.113433837891,-0.001296997070,-0.000732421875,-0.000656127930
0.025604248047,0.000610351563,0.114776611328,-0.000762939453,-0.001083374023,-0.000701904297
0.026748657227,0.001296997070,0.117385864258,-0.000686645508,-0.001663208008,-0.000762939453
0.026351928711,0.004364013672,0.120803833008,-0.000656127930,-0.001617431641,-0.000930786133
0.026748657227,0.004684448242,0.121154785156,0.000350952148,-0.001144409180,-0.001205444336
0.025604248047,0.001571655273,0.118850708008,0.000488281250,-0.000885009766,-0.001403808594
0.027114868164,-0.002059936523,0.119979858398,0.000473022461,-0.000747680664,-0.001358032227
0.028198242188,-0.000091552734,0.122482299805,0.000274658203,-0.000701904297,-0.000808715820
0.028213500977,-0.000839233398,0.124832153320,-0.000473022461,-0.000762939453,-0.000701904297
0.030166625977,-0.003067016602,0.124877929688,-0.001083374023,-0.000534057617,-0.000518798828
0.028793334961,-0.001113891602,0.124145507813,-0.001174926758,-0.000167846680,-0.000274658203
0.028366088867,-0.001678466797,0.117828369141,0.000137329102,0.000427246094,-0.000091552734
0.027496337891,0.000534057617,0.116699218750,0.000289916992,0.000320434570,0.000122070313

-0.023895263672,0.064208984375,0.120727539063,0.010147094727,-0.003280639648,0.008071899414
-0.034957885742,0.079223632813,0.118118286133,0.011947631836,-0.002441406250,0.005767822266
-0.087783813477,0.164230346680,0.146713256836,0.005935668945,-0.003005981445,0.001708984375
-0.119201660156,0.254272460938,0.189041137695,0.001510620117,-0.003860473633,-0.002853393555
-0.151931762695,0.339431762695,0.223983764648,0.005523681641,-0.002777099609,-0.022796630859
-0.204544067383,0.358581542969,0.237442016602,0.002944946289,0.002990722656,-0.038558959961
-0.218612670898,0.346115112305,0.244506835938,-0.008560180664,0.005722045898,-0.054809570313
-0.234420776367,0.261657714844,0.248138427734,-0.014129638672,0.013488769531,-0.089157104492
-0.218475341797,0.203735351563,0.256958007813,-0.019393920898,0.017364501953,-0.102813720703
-0.206817626953,0.085754394531,0.247146606445,-0.034515380859,0.027374267578,-0.119033813477
-0.194061279297,0.024963378906,0.216644287109,-0.033920288086,0.032516479492,-0.122741699219
-0.177352905273,-0.038070678711,0.197082519531,-0.018234252930,0.038391113281,-0.124237060547
-0.134902954102,-0.111999511719,0.171096801758,-0.003112792969,0.043975830078,-0.121627807617
-0.122146606445,-0.129241943359,0.116378784180,0.015045166016,0.050338745117,-0.115798950195
-0.068695068359,-0.204086303711,0.085327148438,0.025558471680,0.048339843750,-0.100112915039
-0.040710449219,-0.242401123047,0.129226684570,0.016769409180,0.045425415039,-0.090606689453
-0.032241821289,-0.262649536133,0.232482910156,0.013397216797,0.053100585938,-0.070892333984
-0.038650512695,-0.284851074219,0.209411621094,0.029724121094,0.063339233398,-0.064727783203
-0.009033203125,-0.370651245117,0.098861694336,0.042800903320,0.072540283203,-0.050460815430
0.027801513672,-0.407150268555,0.081024169922,0.028564453125,0.066574096680,-0.036331176758
0.037200927734,-0.406707763672,0.069931030273,0.010726928711,0.062133789063,-0.008453369141
0.071166992188,-0.321929931641,0.052856445313,0.008850097656,0.056686401367,-0.000030517578
0.075714111328,-0.302566528320,0.040496826172,0.020721435547,0.057693481445,0.003829956055
0.070144653320,-0.259857177734,-0.016098022461,0.024734497070,0.066390991211,0.003005981445
0.069793701172,-0.226867675781,-0.042190551758,0.028747558594,0.061492919922,0.012237548828
0.063415527344,-0.159988403320,-0.069046020508,0.029510498047,0.044311523438,0.028671264648
0.047424316406,-0.133697509766,-0.073944091797,0.023635864258,0.035034179688,0.032562255859
0.044769287109,-0.114242553711,-0.069824218750,0.015548706055,0.025451660156,0.035507202148
0.038269042969,-0.078765869141,-0.035827636719,0.003601074219,0.009155273438,0.037643432617
0.040847778320,-0.074020385742,-0.018524169922,0.004257202148,0.004684448242,0.036544799805
0.043258666992,-0.074645996094,0.004257202148,0.012283325195,0.000808715820,0.033676147461
0.043350219727,-0.076095581055,0.004806518555,0.016616821289,0.000686645508,0.032943725586
0.040115356445,-0.070724487305,0.004547119141,0.021591186523,-0.000091552734,0.033096313477
0.041549682617,-0.074569702148,-0.020568847656,0.023025512695,-0.001602172852,0.033233642578
0.041275024414,-0.069488525391,-0.025619506836,0.024093627930,-0.004577636719,0.034652709961
0.039581298828,-0.045944213867,-0.039688110352,0.029327392578,-0.011276245117,0.037796020508
0.039810180664,-0.038467407227,-0.045806884766,0.029724121094,-0.015548706055,0.037902832031
0.039932250977,-0.018173217773,-0.032241821289,0.020919799805,-0.024963378906,0.034942626953
0.039230346680,-0.015853881836,-0.021209716797,0.017211914063,-0.029083251953,0.032989501953
0.035781860352,-0.019165039063,0.012741088867,0.009887695313,-0.034667968750,0.029739379883
0.036315917969,-0.017227172852,0.028442382813,0.009155273438,-0.035873413086,0.028839111328
0.034561157227,-0.016082763672,0.034255981445,0.010452270508,-0.035720825195,0.027130126953
0.036392211914,-0.019577026367,0.039703369141,0.008377075195,-0.035888671875,0.027191162109
0.034744262695,-0.010314941406,0.040390014648,0.009063720703,-0.035980224609,0.028152465820
0.036575317383,0.001022338867,0.047973632813,0.012878417969,-0.036834716797,0.028701782227
0.030456542969,0.009048461914,0.058044433594,0.015655517578,-0.037521362305,0.026718139648
0.035354614258,0.034988403320,0.071594238281,0.013488769531,-0.035186767578,0.025299072266
0.032455444336,0.031982421875,0.077636718750,0.012924194336,-0.034835815430,0.022460937500
0.034973144531,0.027542114258,0.083847045898,0.010452270508,-0.034118652344,0.019912719727
0.041046142578,0.014114379883,0.079513549805,0.008773803711,-0.034225463867,0.017379760742
0.046051025391,0.004318237305,0.087966918945,0.006088256836,-0.035232543945,0.017028808594
0.045883178711,0.004684448242,0.105987548828,0.007644653320,-0.033721923828,0.017913818359
0.047607421875,0.005828857422,0.101684570313,0.011596679688,-0.031143188477,0.018585205078
0.047348022461,0.010696411133,0.097473144531,0.013870239258,-0.029373168945,0.019454956055
0.032455444336,0.029602050781,0.103454589844,0.014617919922,-0.028366088867,0.018356323242
0.044845581055,0.027832031250,0.112243652344,0.018280029297,-0.029403686523,0.016860961914
0.027435302734,0.023880004883,0.103195190430,0.005981445313,-0.026901245117,0.013565063477
0.018798828125,0.029739379883,0.110656738281,0.000030517578,-0.030242919922,0.014770507813
0.015289306641,0.035400390625,0.116348266602,-0.004241943359,-0.036804199219,0.015960693359
0.019989013672,0.015563964844,0.126953125000,-0.010833740234,-0.039154052734,0.015808105469
0.020553588867,0.014526367188,0.152420043945,-0.015472412109,-0.040634155273,0.016433715820
0.016799926758,0.031188964844,0.192749023438,-0.010391235352,-0.033782958984,0.019027709961
0.012451171875,0.047225952148,0.201324462891,-0.004577636719,-0.027420043945,0.019180297852
0.004394531250,0.064804077148,0.183029174805,0.003250122070,-0.014816284180,0.016555786133
0.001480102539,0.062652587891,0.163238525391,0.004592895508,-0.010238647461,0.013977050781
0.001037597656,0.059585571289,0.155136108398,0.005355834961,-0.006256103516,0.009017944336
0.003402709961,0.049865722656,0.129409790039,0.005401611328,-0.005981445313,0.007385253906
0.003295898438,0.049957275391,0.127700805664,0.002883911133,-0.007568359375,0.006088256836
0.005722045898,0.040115356445,0.130554199219,-0.002670288086,-0.011688232422,0.003692626953
0.007827758789,0.033187866211,0.136611938477,-0.005081176758,-0.013473510742,0.002960205078
0.009262084961,0.030838012695,0.148208618164,-0.006530761719,-0.014572143555,0.002960205078
0.011901855469,0.025695800781,0.148300170898,-0.006637573242,-0.013992309570,0.002761840820
0.013320922852,0.025405883789,0.154739379883,-0.011352539063,-0.012008666992,0.002624511719
0.017318725586,0.024383544922,0.175033569336,-0.007110595703,-0.009277343750,0.002273559570
0.018173217773,0.025924682617,0.175262451172,-0.004089355469,-0.005294799805,0.001815795898
0.018600463867,0.026382446289,0.152557373047,0.005493164063,0.002212524414,-0.000259399414
0.018463134766,0.025115966797,0.138549804688,0.007751464844,0.004516601563,-0.001205444336
0.018173217773,0.016662597656,0.114181518555,0.008224487305,0.005126953125,-0.003250122070
0.020217895508,0.013107299805,0.108032226563,0.006072998047,0.003585815430,-0.003860473633
0.021469116211,0.010116577148,0.106628417969,0.002960205078,0.001403808594,-0.003845214844
0.025283813477,0.003997802734,0.118759155273,-0.000549316406,-0.002593994141,-0.002960205078
0.026046752930,0.002929687500,0.126632690430,-0.001281738281,-0.004119873047,-0.002304077148
0.028686523438,0.003540039063,0.143371582031,-0.000961303711,-0.005676269531,-0.000930786133
0.029571533203,0.004333496094,0.150024414063,-0.000747680664,-0.005676269531,-0.000381469727
0.031906127930,0.002182006836,0.163772583008,-0.001586914063,-0.004608154297,0.000305175781
0.031631469727,0.005310058594,0.166168212891,-0.000625610352,-0.003021240234,0.000946044922
0.030334472656,0.009536743164,0.162170410156,0.001861572266,0.000885009766,0.001449584961
0.026046752930,0.010818481445,0.143722534180,0.003219604492,0.002532958984,0.001281738281
0.023925781250,0.010757446289,0.129333496094,0.004486083984,0.003662109375,0.001190185547
0.018493652344,0.016143798828,0.111770629883,0.004409790039,0.003723144531,0.001266479492
0.016616821289,0.017044067383,0.106735229492,0.004180908203,0.003189086914,0.001037597656
0.015426635742,0.015853881836,0.099441528320,0.002792358398,0.001434326172,0.000732421875
0.013854980469,0.017852783203,0.100189208984,0.001174926758,0.000289916992,0.000579833984
0.013778686523,0.017379760742,0.102050781250,0.000579833984,-0.000579833984,0.000259399414
0.015396118164,0.011840820313,0.112564086914,0.000244140625,-0.001708984375,-0.000457763672
0.017761230469,0.004959106445,0.118698120117,-0.000274658203,-0.001892089844,-0.000518798828
0.020614624023,0.007064819336,0.126037597656,-0.000274658203,-0.001296997070,0.000305175781
0.020034790039,0.008544921875,0.126358032227,0.000381469727,-0.000778198242,0.000289916992
0.021118164063,0.007644653320,0.132232666016,0.000915527344,-0.000579833984,0.000091552734
0.022567749023,0.005111694336,0.133346557617,0.001083374023,-0.000411987305,0.000259399414
0.022018432617,0.007263183594,0.132858276367,0.000488281250,-0.000076293945,0.000442504883
0.019866943359,0.011215209961,0.125778198242,0.000335693359,0.000732421875,0.000518798828
0.019119262695,0.012786865234,0.122268676758,0.000717163086,0.001007080078,0.000457763672
0.018859863281,0.011932373047,0.118469238281,0.000930786133,0.001129150391,0.000183105469

-0.028259277344,0.083801269531,0.096862792969,0.008117675781,-0.003860473633,0.011901855469
-0.048416137695,0.110977172852,0.089431762695,0.006851196289,-0.006134033203,0.009613037109
-0.083892822266,0.180572509766,0.106918334961,-0.001785278320,-0.014724731445,0.003433227539
-0.099258422852,0.211944580078,0.157211303711,-0.008560180664,-0.019485473633,-0.002059936523
-0.118316650391,0.256713867188,0.251770019531,-0.014587402344,-0.013946533203,-0.018981933594
-0.133209228516,0.278137207031,0.253631591797,-0.007980346680,-0.004486083984,-0.028350830078
-0.148590087891,0.271133422852,0.192718505859,-0.001220703125,0.011505126953,-0.048782348633
-0.144180297852,0.241561889648,0.180175781250,-0.000427246094,0.013671875000,-0.059463500977
-0.144927978516,0.193572998047,0.155273437500,-0.004394531250,0.012512207031,-0.073333740234
-0.132156372070,0.155548095703,0.161209106445,-0.008728027344,0.009597778320,-0.079559326172
-0.125366210938,0.126068115234,0.214645385742,-0.018005371094,0.005569458008,-0.089569091797
-0.115203857422,0.069152832031,0.230926513672,-0.019058227539,0.007156372070,-0.093200683594
-0.108154296875,0.021240234375,0.234298706055,-0.014801025391,0.017379760742,-0.097686767578
-0.094696044922,-0.062728881836,0.232574462891,0.000793457031,0.024673461914,-0.096649169922
-0.093978881836,-0.074417114258,0.213088989258,0.011505126953,0.032424926758,-0.093399047852
-0.093734741211,-0.107879638672,0.201583862305,0.019622802734,0.041244506836,-0.086929321289
-0.094299316406,-0.134399414063,0.232376098633,0.016510009766,0.043991088867,-0.085220336914
-0.091964721680,-0.201934814453,0.296905517578,0.019302368164,0.055618286133,-0.080261230469
-0.093780517578,-0.248794555664,0.304885864258,0.024612426758,0.065643310547,-0.078582763672
-0.074630737305,-0.389938354492,0.228698730469,0.030334472656,0.089584350586,-0.069061279297
-0.047439575195,-0.426208496094,0.179504394531,0.028472900391,0.097122192383,-0.056228637695
-0.038681030273,-0.402542114258,0.068008422852,0.038970947266,0.113082885742,-0.037460327148
-0.031204223633,-0.353576660156,-0.013595581055,0.053176879883,0.118087768555,-0.023727416992
-0.007873535156,-0.262542724609,-0.138488769531,0.068283081055,0.109588623047,0.003906250000
0.002838134766,-0.227844238281,-0.178619384766,0.069473266602,0.101440429688,0.012725830078
0.020935058594,-0.175689697266,-0.204360961914,0.062316894531,0.073165893555,0.027450561523
0.024566650391,-0.156829833984,-0.188354492188,0.053558349609,0.055435180664,0.032760620117
0.023788452148,-0.139129638672,-0.162582397461,0.032775878906,0.025634765625,0.041213989258
0.020965576172,-0.107208251953,-0.111770629883,0.025100708008,0.014877319336,0.043441772461
0.020462036133,-0.095443725586,-0.091903686523,0.020462036133,0.006607055664,0.043792724609
0.016998291016,-0.073287963867,-0.072891235352,0.019241333008,-0.004501342773,0.042938232422
0.016998291016,-0.063415527344,-0.072708129883,0.020095825195,-0.008590698242,0.042556762695
0.017868041992,-0.053741455078,-0.067733764648,0.019256591797,-0.016220092773,0.040267944336
0.019424438477,-0.052383422852,-0.063903808594,0.018157958984,-0.019943237305,0.039169311523
0.021545410156,-0.049926757813,-0.054672241211,0.016799926758,-0.026916503906,0.038681030273
0.020217895508,-0.044189453125,-0.049636840820,0.017959594727,-0.030181884766,0.038650512695
0.014083862305,-0.026489257813,-0.032699584961,0.019622802734,-0.036743164063,0.039077758789
0.014984130859,-0.018569946289,-0.025054931641,0.020553588867,-0.040725708008,0.037963867188
0.016952514648,-0.010162353516,-0.013153076172,0.016937255859,-0.044250488281,0.035446166992
0.013153076172,0.003845214844,-0.001937866211,0.015472412109,-0.046356201172,0.033462524414
0.014144897461,0.003921508789,0.006988525391,0.013610839844,-0.050079345703,0.030075073242
0.012329101563,0.006347656250,0.029373168945,0.013854980469,-0.051712036133,0.029098510742
0.011215209961,0.010726928711,0.038467407227,0.014999389648,-0.052642822266,0.028427124023
0.011779785156,0.011276245117,0.046615600586,0.015472412109,-0.052642822266,0.026885986328
0.011886596680,0.007812500000,0.054214477539,0.014556884766,-0.053237915039,0.026428222656
0.013473510742,0.025421142578,0.068084716797,0.017120361328,-0.053283691406,0.026489257813
0.012619018555,0.034149169922,0.077270507813,0.020248413086,-0.053268432617,0.025482177734
0.010864257813,0.041687011719,0.106658935547,0.015518188477,-0.053451538086,0.022003173828
0.005905151367,0.043380737305,0.121215820313,0.012161254883,-0.052566528320,0.019912719727
0.011566162109,0.038940429688,0.131515502930,0.010894775391,-0.050521850586,0.016677856445
0.016571044922,0.036529541016,0.141571044922,0.012237548828,-0.043884277344,0.016250610352
0.022338867188,0.027786254883,0.141510009766,0.013076782227,-0.040100097656,0.015472412109
0.020965576172,0.029159545898,0.137359619141,0.016647338867,-0.032135009766,0.015640258789
0.023422241211,0.030242919922,0.122512817383,0.023345947266,-0.028869628906,0.015548706055
0.015106201172,0.043746948242,0.126907348633,0.025878906250,-0.028640747070,0.013595581055
-0.004852294922,0.037567138672,0.128540039063,0.022537231445,-0.029647827148,0.011596679688
-0.001266479492,0.014373779297,0.132736206055,0.016433715820,-0.031539916992,0.003082275391
0.009902954102,0.021667480469,0.142211914063,-0.000793457031,-0.029922485352,0.005035400391
-0.007980346680,0.026412963867,0.161315917969,0.001266479492,-0.038192749023,0.009506225586
0.007659912109,0.026947021484,0.179870605469,-0.004577636719,-0.037002563477,0.008956909180
-0.002700805664,0.037094116211,0.205841064453,-0.011566162109,-0.030151367188,0.010513305664
-0.008514404297,0.055740356445,0.222763061523,-0.007156372070,-0.022445678711,0.009872436523
-0.010253906250,0.062606811523,0.209106445313,-0.002136230469,-0.006729125977,0.005523681641
-0.014022827148,0.067230224609,0.166305541992,-0.002029418945,-0.002914428711,0.002532958984
-0.010360717773,0.060211181641,0.150527954102,-0.003372192383,-0.000778198242,-0.000137329102
-0.000854492188,0.044921875000,0.135238647461,-0.004425048828,-0.000457763672,-0.002441406250
-0.000122070313,0.036605834961,0.133926391602,-0.005706787109,-0.000518798828,-0.003814697266
0.011901855469,0.022979736328,0.120101928711,-0.005035400391,-0.000289916992,-0.006439208984
0.015716552734,0.026535034180,0.091033935547,-0.003234863281,-0.000564575195,-0.007629394531
0.030487060547,0.063323974609,0.004745483398,0.004135131836,-0.012680053711,-0.013122558594
0.125610351563,-0.017364501953,0.196990966797,-0.000640869141,-0.031982421875,-0.017669677734
0.060913085938,-0.101364135742,0.499938964844,-0.020797729492,-0.032546997070,-0.012313842773
0.049118041992,-0.024032592773,0.418869018555,-0.002441406250,-0.005874633789,-0.002929687500
0.023284912109,0.031372070313,0.194717407227,0.017837524414,0.022537231445,0.005706787109
0.010971069336,0.033294677734,0.115890502930,0.015441894531,0.031616210938,0.004470825195
0.001434326172,0.035263061523,0.002090454102,0.018539428711,0.035354614258,0.004089355469
0.002746582031,0.044982910156,-0.031661987305,0.017303466797,0.030090332031,0.002761840820
0.001129150391,0.048431396484,-0.044311523438,0.012039184570,0.021469116211,-0.002792358398
0.017318725586,0.019073486328,0.003646850586,0.001831054688,-0.000549316406,-0.002014160156
0.019775390625,0.013015747070,0.044418334961,-0.001892089844,-0.009323120117,-0.001724243164
0.030471801758,0.003616333008,0.136627197266,-0.008255004883,-0.018737792969,-0.000488281250
0.033691406250,-0.001281738281,0.178787231445,-0.008529663086,-0.019638061523,-0.000366210937
0.033401489258,-0.004501342773,0.212432861328,-0.003280639648,-0.012680053711,0.000076293945
0.032958984375,-0.006240844727,0.210311889648,-0.001602172852,-0.007080078125,0.000228881836
0.023910522461,0.004135131836,0.154418945313,0.004333496094,0.004776000977,0.001159667969
0.020568847656,0.006759643555,0.124359130859,0.007263183594,0.008239746094,0.001205444336
0.016937255859,0.011581420898,0.088500976563,0.009170532227,0.008911132813,0.001144409180
0.016250610352,0.009475708008,0.080261230469,0.008407592773,0.007247924805,0.000808715820
0.017990112305,0.007034301758,0.077041625977,0.004592895508,0.001190185547,0.000076293945
0.023422241211,0.003768920898,0.093811035156,0.002182006836,-0.001983642578,-0.000106811523
0.024871826172,0.004150390625,0.108230590820,0.000228881836,-0.004196166992,-0.000274658203
0.027603149414,-0.001632690430,0.128387451172,-0.000625610352,-0.004928588867,-0.000946044922
0.028091430664,-0.002395629883,0.136581420898,-0.001953125000,-0.004257202148,-0.001098632813
0.027313232422,-0.008453369141,0.140838623047,-0.001525878906,-0.002182006836,-0.000915527344
0.027542114258,-0.005325317383,0.141067504883,-0.000534057617,-0.001068115234,-0.000228881836
0.023300170898,0.005096435547,0.123565673828,0.001953125000,0.001586914063,0.000610351563
0.021591186523,0.005249023438,0.113754272461,0.002517700195,0.002044677734,0.000381469727
0.022048950195,0.005279541016,0.107788085938,0.002792358398,0.001144409180,0.000091552734
0.021606445313,0.006851196289,0.107894897461,0.001663208008,0.000411987305,-0.000091552734
0.021499633789,0.007232666016,0.108245849609,0.000991821289,-0.000961303711,-0.000778198242
0.024566650391,-0.000961303711,0.112854003906,0.001190185547,-0.001800537109,-0.000747680664
0.024887084961,0.000137329102,0.120162963867,0.000396728516,-0.002349853516,-0.000381469727
0.025634765625,-0.000335693359,0.130081176758,-0.000488281250,-0.002243041992,-0.000289916992
0.025939941406,-0.000518798828,0.132888793945,-0.000488281250,-0.001922607422,-0.000228881836

0.045120239258,-0.036956787109,0.123214721680,0.003555297852,0.002029418945,0.007995605469
0.046020507813,-0.038162231445,0.117202758789,0.005630493164,0.002761840820,0.010360717773
0.041687011719,-0.037628173828,0.100112915039,0.009689331055,0.003265380859,0.015182495117
0.034729003906,-0.034133911133,0.086059570313,0.011169433594,0.002304077148,0.017761230469
0.018859863281,-0.022506713867,0.062789916992,0.013519287109,-0.003616333008,0.021987915039
0.006423950195,-0.015747070313,0.052413940430,0.015350341797,-0.008499145508,0.023864746094
0.000167846680,-0.008941650391,0.054229736328,0.015014648438,-0.022720336914,0.027435302734
-0.026992797852,0.025268554688,0.089096069336,0.010848999023,-0.029724121094,0.028762817383
-0.038955688477,0.048751831055,0.119430541992,0.008743286133,-0.036834716797,0.030487060547
-0.066268920898,0.117965698242,0.231964111328,0.005584716797,-0.043945312500,0.029327392578
-0.079254150391,0.150070190430,0.273452758789,0.008987426758,-0.039627075195,0.025405883789
-0.101150512695,0.248474121094,0.298995971680,0.017120361328,-0.020675659180,0.013809204102
-0.102493286133,0.276290893555,0.295333862305,0.015716552734,-0.010375976563,0.003936767578
-0.104660034180,0.241058349609,0.233795166016,0.006790161133,0.004257202148,-0.018783569336
-0.099990844727,0.240570068359,0.232727050781,0.003234863281,0.006347656250,-0.025970458984
-0.097717285156,0.210769653320,0.189224243164,-0.001953125000,0.014419555664,-0.041168212891
-0.097900390625,0.182083129883,0.167129516602,-0.004608154297,0.016387939453,-0.048065185547
-0.095962524414,0.159835815430,0.142303466797,-0.009643554688,0.016967773438,-0.056884765625
-0.094390869141,0.118011474609,0.111648559570,-0.013519287109,0.015609741211,-0.061630249023
-0.090591430664,0.082336425781,0.107482910156,-0.017364501953,0.013183593750,-0.072723388672
-0.088043212891,-0.006439208984,0.115570068359,-0.025421142578,0.009414672852,-0.077026367188
-0.103500366211,-0.031509399414,0.113159179688,-0.027267456055,0.009277343750,-0.079467773438
-0.096298217773,-0.090621948242,0.116394042969,-0.014282226563,0.011032104492,-0.079925537109
-0.092224121094,-0.130157470703,0.139892578125,-0.006668090820,0.012451171875,-0.080749511719
-0.083312988281,-0.153579711914,0.143386840820,0.004043579102,0.019165039063,-0.072479248047
-0.081375122070,-0.151794433594,0.160568237305,0.001922607422,0.021377563477,-0.066101074219
-0.061447143555,-0.162673950195,0.199310302734,-0.009338378906,0.026260375977,-0.057815551758
-0.071304321289,-0.197921752930,0.249450683594,-0.014724731445,0.028182983398,-0.057983398438
-0.051177978516,-0.203796386719,0.323760986328,-0.022644042969,0.040863037109,-0.053192138672
-0.041534423828,-0.239807128906,0.370056152344,-0.013839721680,0.050186157227,-0.055572509766
-0.053131103516,-0.257827758789,0.417098999023,0.000061035156,0.086929321289,-0.052734375000
-0.072357177734,-0.232849121094,0.357192993164,0.016738891602,0.107971191406,-0.047302246094
-0.084030151367,-0.216720581055,0.154510498047,0.050903320313,0.134902954102,-0.036315917969
-0.076751708984,-0.208877563477,0.071929931641,0.055725097656,0.137207031250,-0.028442382813
-0.057861328125,-0.188964843750,-0.098815917969,0.064025878906,0.126617431641,-0.007934570313
0.000534057617,-0.178070068359,-0.137847900391,0.062744140625,0.109176635742,0.002441406250
0.021179199219,-0.165786743164,-0.136322021484,0.033782958984,0.068969726563,0.020507812500
0.040481567383,-0.142257690430,-0.057052612305,0.018905639648,0.054244995117,0.025817871094
0.048980712891,-0.132812500000,-0.017440795898,0.012756347656,0.044494628906,0.029449462891
0.044708251953,-0.087677001953,-0.026977539063,0.020935058594,0.036819458008,0.035140991211
0.045730590820,-0.070053100586,-0.042984008789,0.027954101563,0.032241821289,0.035568237305
0.050552368164,-0.046875000000,-0.066574096680,0.032257080078,0.021667480469,0.035232543945
0.054748535156,-0.043869018555,-0.073257446289,0.031372070313,0.015563964844,0.034530639648
0.060852050781,-0.050796508789,-0.059082031250,0.025070190430,0.002014160156,0.033843994141
0.060134887695,-0.049850463867,-0.051345825195,0.022537231445,-0.003707885742,0.034408569336
0.052810668945,-0.044906616211,-0.037368774414,0.024078369141,-0.014068603516,0.036758422852
0.047607421875,-0.021255493164,-0.034881591797,0.027313232422,-0.018341064453,0.038436889648
0.047348022461,-0.000320434570,-0.008636474609,0.034759521484,-0.027359008789,0.037414550781
0.042297363281,0.010360717773,0.005783081055,0.031295776367,-0.030227661133,0.036178588867
0.041229248047,0.012405395508,0.017532348633,0.024459838867,-0.033584594727,0.033050537109
0.040527343750,0.027572631836,0.014602661133,0.022628784180,-0.034225463867,0.031448364258
0.043167114258,0.032241821289,0.009185791016,0.021697998047,-0.035400390625,0.030105590820
0.044616699219,0.026184082031,0.012771606445,0.018417358398,-0.038909912109,0.028259277344
0.041503906250,0.027069091797,0.035354614258,0.015975952148,-0.040557861328,0.027999877930
0.035980224609,0.047302246094,0.070739746094,0.016067504883,-0.038726806641,0.026992797852
0.032089233398,0.055648803711,0.072662353516,0.017196655273,-0.036987304688,0.024902343750
0.033020019531,0.061233520508,0.070037841797,0.013839721680,-0.035705566406,0.019439697266
0.035247802734,0.055099487305,0.066101074219,0.012420654297,-0.036239624023,0.017150878906
0.038528442383,0.050506591797,0.065734863281,0.011352539063,-0.037704467773,0.014846801758
0.037612915039,0.054306030273,0.074737548828,0.013259887695,-0.037475585938,0.014236450195
0.039230346680,0.055480957031,0.078262329102,0.015579223633,-0.036758422852,0.011962890625
0.036026000977,0.059631347656,0.096771240234,0.017837524414,-0.035812377930,0.010635375977
0.030410766602,0.061416625977,0.106521606445,0.019348144531,-0.034591674805,0.009338378906
0.036041259766,0.053848266602,0.126449584961,0.021911621094,-0.031188964844,0.006301879883
0.032302856445,0.050247192383,0.134429931641,0.021057128906,-0.028747558594,0.005432128906
0.026596069336,0.045166015625,0.132797241211,0.022216796875,-0.022506713867,0.003265380859
0.032836914063,0.045471191406,0.120666503906,0.024337768555,-0.019454956055,0.002243041992
0.039810180664,0.040466308594,0.108734130859,0.028274536133,-0.016906738281,0.000198364258
0.024078369141,0.030059814453,0.100753784180,0.020095825195,-0.013473510742,-0.003952026367
0.033950805664,0.042434692383,0.100204467773,0.012969970703,-0.019088745117,-0.002746582031
0.027832031250,0.029602050781,0.099090576172,0.012741088867,-0.021453857422,-0.003707885742
0.023834228516,0.023406982422,0.105895996094,0.006790161133,-0.024215698242,-0.004653930664
0.017150878906,0.024520874023,0.122329711914,-0.005004882813,-0.028808593750,-0.005981445313
0.017837524414,0.027664184570,0.137069702148,-0.008712768555,-0.030487060547,-0.005554199219
0.018463134766,0.040145874023,0.164215087891,-0.012039184570,-0.029571533203,-0.004394531250
0.019515991211,0.043350219727,0.170227050781,-0.011611938477,-0.026275634766,-0.004501342773
0.023254394531,0.042617797852,0.180023193359,-0.007751464844,-0.016479492188,-0.006729125977
0.028060913086,0.037216186523,0.172058105469,-0.003982543945,-0.010620117188,-0.008255004883
0.035415649414,0.028060913086,0.152404785156,0.002670288086,-0.003372192383,-0.010620117188
0.039108276367,0.017974853516,0.149948120117,0.001953125000,-0.002258300781,-0.011871337891
0.044708251953,0.008865356445,0.144943237305,-0.002487182617,-0.002059936523,-0.012603759766
0.043365478516,0.011215209961,0.143615722656,-0.005096435547,-0.002395629883,-0.012588500977
0.042404174805,0.015747070313,0.135971069336,-0.010269165039,-0.003051757813,-0.012557983398
0.035293579102,0.016021728516,0.118530273438,-0.012664794922,-0.003616333008,-0.012542724609
0.034378051758,0.013641357422,0.110671997070,-0.014175415039,-0.005111694336,-0.010986328125
0.038757324219,0.036880493164,0.084014892578,-0.004714965820,-0.008621215820,-0.011520385742
0.082626342773,0.045196533203,0.089660644531,0.003585815430,-0.016769409180,-0.018295288086
0.085037231445,-0.080947875977,0.384292602539,-0.006774902344,-0.036071777344,-0.017303466797
0.050979614258,-0.090209960938,0.373611450195,-0.004440307617,-0.022872924805,-0.011718750000
0.053985595703,-0.000305175781,0.228378295898,-0.003189086914,0.004486083984,-0.000579833984
0.037673950195,0.014846801758,0.158950805664,0.003738403320,0.013137817383,0.000305175781
0.027526855469,0.014434814453,0.058502197266,0.004379272461,0.020980834961,-0.002151489258
0.022689819336,0.014129638672,0.031967163086,0.002059936523,0.019363403320,-0.002014160156
0.025207519531,0.012481689453,0.013702392578,0.003128051758,0.009674072266,-0.001800537109
0.028305053711,0.009231567383,0.026184082031,0.002624511719,0.003540039063,-0.002227783203
0.031997680664,0.004348754883,0.043884277344,0.000030517578,-0.007003784180,-0.002380371094
0.038024902344,-0.008743286133,0.102355957031,-0.002014160156,-0.010711669922,-0.002365112305
0.041030883789,-0.013732910156,0.133239746094,-0.003814697266,-0.012847900391,-0.001113891602
0.038406372070,-0.011901855469,0.176589965820,-0.004592895508,-0.011810302734,-0.000396728516
0.036743164063,-0.007064819336,0.183410644531,-0.003067016602,-0.008941650391,0.000045776367
0.030258178711,0.001708984375,0.164306640625,-0.000518798828,-0.001098632813,0.000381469727
0.025634765625,0.000915527344,0.141036987305,0.001022338867,0.002288818359,0.000549316406
0.021789550781,0.010574340820,0.105392456055,0.006240844727,0.005172729492,0.001388549805
0.020370483398,0.015930175781,0.094833374023,0.007385253906,0.004776000977,0.001510620117

-0.048080444336,0.061752319336,0.147903442383,-0.001617431641,-0.013961791992,0.006668090820
-0.065155029297,0.098159790039,0.189025878906,-0.005157470703,-0.014450073242,0.005096435547
-0.115966796875,0.203933715820,0.239974975586,0.005020141602,-0.003036499023,-0.006332397461
-0.136306762695,0.240005493164,0.220687866211,0.011428833008,0.005096435547,-0.016220092773
-0.159774780273,0.246734619141,0.187988281250,0.010910034180,0.015060424805,-0.041854858398
-0.166656494141,0.246978759766,0.190307617188,0.009536743164,0.017288208008,-0.053009033203
-0.167282104492,0.231018066406,0.176361083984,0.008987426758,0.020095825195,-0.072204589844
-0.145889282227,0.151031494141,0.187408447266,0.002075195313,0.020019531250,-0.078460693359
-0.141510009766,0.125656127930,0.157775878906,-0.004714965820,0.020385742188,-0.082702636719
-0.143447875977,0.117767333984,0.194183349609,-0.020690917969,0.013214111328,-0.085388183594
-0.137191772461,0.095672607422,0.212524414063,-0.022476196289,0.012496948242,-0.088989257813
-0.115447998047,-0.028991699219,0.246627807617,-0.024993896484,0.016235351563,-0.096099853516
-0.080017089844,-0.091796875000,0.244812011719,-0.014099121094,0.023590087891,-0.096527099609
-0.077102661133,-0.075317382813,0.217880249023,0.010696411133,0.039230346680,-0.084365844727
-0.066604614258,-0.100204467773,0.203918457031,0.022720336914,0.044967651367,-0.085494995117
-0.056503295898,-0.236068725586,0.199203491211,0.041564941406,0.046005249023,-0.092834472656
-0.039093017578,-0.314147949219,0.210250854492,0.051773071289,0.045364379883,-0.077972412109
0.034179687500,-0.497634887695,0.155242919922,0.032669067383,0.066864013672,-0.047332763672
0.059921264648,-0.499938964844,0.104583740234,0.011169433594,0.073257446289,-0.042480468750
0.042785644531,-0.499938964844,0.075973510742,0.002319335938,0.069488525391,-0.016921997070
0.062347412109,-0.441970825195,0.046096801758,0.015090942383,0.070892333984,-0.000442504883
0.048553466797,-0.358840942383,-0.006866455078,0.030715942383,0.077117919922,0.023834228516
0.030593872070,-0.220260620117,-0.095108032227,0.039764404297,0.076141357422,0.026321411133
0.028686523438,-0.162185668945,-0.121963500977,0.029129028320,0.073608398438,0.030502319336
0.034912109375,-0.089797973633,-0.128463745117,0.020568847656,0.054565429688,0.035751342773
0.037368774414,-0.094009399414,-0.098251342773,0.019256591797,0.043945312500,0.033752441406
0.044967651367,-0.081253051758,-0.078308105469,0.019378662109,0.031936645508,0.032409667969
0.046630859375,-0.092559814453,-0.070892333984,0.024154663086,0.026092529297,0.030456542969
0.044967651367,-0.080139160156,-0.074478149414,0.023544311523,0.018371582031,0.034378051758
0.042037963867,-0.069732666016,-0.075088500977,0.024917602539,0.013977050781,0.035369873047
0.039825439453,-0.063903808594,-0.061172485352,0.021911621094,0.004241943359,0.034072875977
0.041595458984,-0.061050415039,-0.049453735352,0.020736694336,-0.000106811523,0.032608032227
0.042221069336,-0.053680419922,-0.044326782227,0.019836425781,-0.005676269531,0.032409667969
0.038238525391,-0.039367675781,-0.040817260742,0.020492553711,-0.008071899414,0.031845092773
0.037200927734,-0.029388427734,-0.037246704102,0.020034790039,-0.009979248047,0.031112670898
0.045028686523,-0.028656005859,-0.032836914063,0.024520874023,-0.014450073242,0.027359008789
0.046981811523,-0.025421142578,-0.036636352539,0.024063110352,-0.016021728516,0.026123046875
0.046188354492,-0.015975952148,-0.038131713867,0.015151977539,-0.021118164063,0.024353027344
0.047027587891,-0.020141601563,-0.029144287109,0.010421752930,-0.026214599609,0.022659301758
0.049118041992,-0.030075073242,0.007369995117,0.007446289063,-0.036666870117,0.020797729492
0.046218872070,-0.028961181641,0.019973754883,0.009140014648,-0.039138793945,0.020675659180
0.042663574219,-0.014007568359,0.041091918945,0.010635375977,-0.038742065430,0.023010253906
0.040054321289,-0.004470825195,0.047286987305,0.012893676758,-0.038772583008,0.023590087891
0.034790039063,0.014923095703,0.052688598633,0.009384155273,-0.037597656250,0.023284912109
0.033050537109,0.020843505859,0.052200317383,0.007553100586,-0.036849975586,0.021316528320
0.033081054688,0.024871826172,0.050079345703,0.008407592773,-0.037338256836,0.016769409180
0.037628173828,0.020751953125,0.048492431641,0.007034301758,-0.038772583008,0.014862060547
0.038284301758,0.016281127930,0.058425903320,0.002151489258,-0.044876098633,0.014175415039
0.037307739258,0.016937255859,0.091094970703,-0.003555297852,-0.043533325195,0.016128540039
0.038635253906,0.020782470703,0.102416992188,-0.002380371094,-0.042373657227,0.017257690430
0.033065795898,0.030914306641,0.116439819336,0.001083374023,-0.037124633789,0.018020629883
0.034225463867,0.028808593750,0.119674682617,0.003067016602,-0.034057617188,0.016632080078
0.035476684570,0.034866333008,0.108154296875,0.010314941406,-0.029342651367,0.014358520508
0.020324707031,0.026443481445,0.102981567383,0.013839721680,-0.029205322266,0.013153076172
0.024810791016,0.013732910156,0.083969116211,0.011688232422,-0.027740478516,0.003829956055
0.030197143555,0.015731811523,0.096603393555,0.000625610352,-0.030731201172,0.005172729492
0.031494140625,0.018920898438,0.113433837891,-0.003967285156,-0.038986206055,0.011093139648
0.020660400391,0.010818481445,0.141983032227,-0.003768920898,-0.037979125977,0.011291503906
0.016830444336,0.017593383789,0.151229858398,-0.006698608398,-0.035385131836,0.013977050781
0.010452270508,0.043914794922,0.151702880859,-0.002838134766,-0.030441284180,0.014526367188
0.008590698242,0.042739868164,0.151138305664,-0.003173828125,-0.028335571289,0.012680053711
0.013671875000,0.033355712891,0.154937744141,-0.009109497070,-0.024627685547,0.010238647461
0.012786865234,0.039505004883,0.157760620117,-0.007736206055,-0.022171020508,0.009628295898
0.011810302734,0.038619995117,0.156784057617,-0.001663208008,-0.018569946289,0.006118774414
0.014495849609,0.029754638672,0.160171508789,-0.001342773438,-0.018646240234,0.004547119141
0.021423339844,0.012100219727,0.181243896484,-0.004379272461,-0.018997192383,0.004165649414
0.024322509766,0.010879516602,0.188613891602,-0.004333496094,-0.017456054688,0.004592895508
0.025253295898,0.014312744141,0.179885864258,0.000137329102,-0.010696411133,0.004592895508
0.024932861328,0.015838623047,0.172760009766,0.002243041992,-0.007492065430,0.004318237305
0.023208618164,0.020751953125,0.158615112305,0.007247924805,-0.000991821289,0.003448486328
0.018829345703,0.030395507813,0.145568847656,0.009521484375,0.002334594727,0.001983642578
0.017242431641,0.032852172852,0.128601074219,0.010925292969,0.005508422852,0.000350952148
0.019165039063,0.016952514648,0.092941284180,0.009124755859,0.008544921875,-0.002944946289
0.022476196289,0.011215209961,0.074630737305,0.006744384766,0.007797241211,-0.003540039063
0.099517822266,0.001296997070,0.060424804688,-0.002761840820,-0.013397216797,-0.006103515625
0.039215087891,-0.060226440430,0.305099487305,-0.038803100586,-0.045623779297,-0.006042480469
0.035293579102,0.039108276367,0.494125366211,-0.048187255859,-0.032501220703,-0.002273559570
0.044204711914,0.029693603516,0.296936035156,0.000167846680,-0.001876831055,-0.000137329102
0.011428833008,0.021789550781,0.121582031250,0.003479003906,0.021102905273,0.002090454102
0.005249023438,0.029296875000,0.078918457031,0.007431030273,0.025344848633,0.001846313477
0.007644653320,0.031509399414,0.038375854492,0.015167236328,0.024658203125,0.000274658203
0.008865356445,0.026947021484,-0.001312255859,0.012893676758,0.018600463867,-0.000213623047
0.009201049805,0.024291992188,-0.000381469727,0.006576538086,0.010055541992,0.000289916992
0.015686035156,0.013626098633,0.057022094727,-0.005569458008,-0.007720947266,0.000793457031
0.023544311523,0.009109497070,0.088912963867,-0.006118774414,-0.012512207031,0.001312255859
0.032669067383,0.007598876953,0.159225463867,-0.003585815430,-0.014190673828,0.001235961914
0.031692504883,0.011611938477,0.175140380859,-0.002761840820,-0.011398315430,0.001037597656
0.025878906250,0.019973754883,0.179214477539,-0.000122070313,-0.004425048828,0.000259399414
0.024078369141,0.018478393555,0.164703369141,0.000259399414,-0.000946044922,-0.000320434570
0.019958496094,0.014739990234,0.124816894531,0.001464843750,0.004013061523,-0.000686645508
0.018981933594,0.017288208008,0.109115600586,0.002761840820,0.004989624023,-0.000640869141
0.018554687500,0.016296386719,0.099853515625,0.003509521484,0.003906250000,-0.000930786133
0.023468017578,0.012802124023,0.103744506836,0.003570556641,0.002716064453,-0.001007080078
0.025909423828,0.010955810547,0.106735229492,0.003280639648,0.001693725586,-0.001037597656
0.028518676758,0.009552001953,0.117401123047,0.001113891602,-0.000213623047,-0.000885009766
0.029235839844,0.010772705078,0.120788574219,0.000793457031,-0.000595092773,-0.000732421875
0.030166625977,0.011825561523,0.125106811523,0.000305175781,-0.000564575195,-0.000686645508
0.029922485352,0.011505126953,0.124572753906,0.000091552734,-0.000259399414,-0.000762939453
0.029388427734,0.009948730469,0.119522094727,0.000869750977,0.000442504883,-0.000915527344
0.029098510742,0.010131835938,0.118850708008,-0.000045776367,0.000503540039,-0.000793457031
0.028182983398,0.008956909180,0.114273071289,-0.000228881836,0.000457763672,-0.000289916992
0.028366088867,0.010009765625,0.115829467773,-0.000198364258,0.000183105469,0.000045776367
0.027923583984,0.012237548828,0.116134643555,0.000350952148,0.000091552734,0.000335693359
0.026641845703,0.013061523438,0.113525390625,0.000411987305,0.000061035156,0.000320434570

-0.038803100586,0.111648559570,0.116012573242,0.007034301758,-0.004913330078,0.001281738281
-0.103240966797,0.129745483398,0.082336425781,0.006729125977,-0.006942749023,-0.001358032227
-0.117858886719,0.365310668945,0.208023071289,-0.018005371094,-0.024780273438,-0.010238647461
-0.099639892578,0.458404541016,0.365005493164,-0.017715454102,-0.028274536133,-0.036712646484
-0.159515380859,0.200897216797,0.371170043945,-0.044235229492,-0.001251220703,-0.092864990234
-0.157608032227,0.147048950195,0.354248046875,-0.063140869141,0.014617919922,-0.098953247070
-0.160476684570,0.160476684570,0.327224731445,-0.020797729492,0.049011230469,-0.097564697266
-0.176986694336,0.158065795898,0.291717529297,0.000137329102,0.064514160156,-0.097824096680
-0.165985107422,0.069427490234,0.286636352539,0.017410278320,0.087615966797,-0.108474731445
-0.133377075195,-0.096649169922,0.235183715820,0.024520874023,0.100723266602,-0.108657836914
-0.120849609375,-0.136962890625,0.139724731445,0.041641235352,0.120742797852,-0.094116210938
-0.042953491211,-0.311279296875,-0.043853759766,0.054290771484,0.108764648438,-0.082962036133
0.020721435547,-0.420700073242,-0.082153320313,0.036453247070,0.091125488281,-0.043777465820
0.088348388672,-0.452529907227,-0.130905151367,-0.004867553711,0.055572509766,-0.021408081055
0.095443725586,-0.383300781250,-0.125167846680,-0.015060424805,0.037857055664,0.002578735352
0.078857421875,-0.244522094727,-0.132431030273,-0.009735107422,0.023483276367,0.026657104492
0.075042724609,-0.185989379883,-0.152877807617,0.009201049805,0.020324707031,0.030822753906
0.069717407227,-0.097381591797,-0.162094116211,0.032546997070,0.013320922852,0.038284301758
0.064559936523,-0.061218261719,-0.161895751953,0.033706665039,0.008331298828,0.041351318359
0.071548461914,-0.029434204102,-0.153991699219,0.019226074219,-0.003753662109,0.040634155273
0.066375732422,-0.033660888672,-0.139556884766,0.006835937500,-0.010864257813,0.037841796875
0.058715820313,-0.047805786133,-0.092285156250,-0.007217407227,-0.022796630859,0.032974243164
0.055343627930,-0.056808471680,-0.063629150391,-0.012222290039,-0.027954101563,0.033050537109
0.034667968750,-0.060882568359,0.001708984375,-0.016845703125,-0.036758422852,0.037979125977
0.034439086914,-0.047363281250,0.025833129883,-0.013092041016,-0.039184570313,0.040710449219
0.027786254883,-0.017593383789,0.042984008789,-0.002395629883,-0.042312622070,0.042465209961
0.024230957031,-0.006057739258,0.050354003906,-0.001571655273,-0.045288085938,0.042419433594
0.029327392578,-0.003402709961,0.071075439453,0.000808715820,-0.053390502930,0.039169311523
0.047195434570,0.000183105469,0.095642089844,0.005523681641,-0.057403564453,0.037780761719
0.049804687500,-0.004730224609,0.142044067383,0.009246826172,-0.060287475586,0.035873413086
0.031753540039,-0.013366699219,0.224075317383,0.010253906250,-0.057189941406,0.035568237305
0.016418457031,0.005355834961,0.237701416016,0.010620117188,-0.051315307617,0.038223266602
-0.014907836914,0.074874877930,0.204772949219,0.008117675781,-0.040328979492,0.046691894531
-0.023147583008,0.098220825195,0.181838989258,0.004913330078,-0.036758422852,0.045379638672
-0.018371582031,0.093109130859,0.169357299805,0.008544921875,-0.028518676758,0.035415649414
-0.015335083008,0.084396362305,0.161041259766,0.010314941406,-0.022476196289,0.030334472656
-0.018096923828,0.076797485352,0.144836425781,0.016281127930,-0.013214111328,0.023406982422
-0.022644042969,0.078979492188,0.134582519531,0.015472412109,-0.010940551758,0.021133422852
-0.023651123047,0.078933715820,0.142776489258,0.011611938477,-0.012557983398,0.015518188477
-0.024978637695,0.071624755859,0.153228759766,0.008728027344,-0.014526367188,0.013397216797
-0.023437500000,0.072769165039,0.161575317383,0.005310058594,-0.016113281250,0.012771606445
-0.019638061523,0.078582763672,0.170257568359,0.001724243164,-0.014999389648,0.012283325195
-0.017974853516,0.081192016602,0.172637939453,0.001022338867,-0.012725830078,0.011032104492
-0.010726928711,0.071746826172,0.168167114258,0.002822875977,-0.004989624023,0.006668090820
-0.005523681641,0.061508178711,0.156707763672,0.005935668945,-0.000381469727,0.004013061523
0.003906250000,0.042800903320,0.137588500977,0.011581420898,0.006851196289,-0.000762939453
0.009262084961,0.028671264648,0.128997802734,0.012741088867,0.008834838867,-0.002395629883
0.021163940430,0.010574340820,0.113677978516,0.010543823242,0.009140014648,-0.002990722656
0.024749755859,0.004760742188,0.105575561523,0.008407592773,0.008255004883,-0.002487182617
0.028549194336,0.001022338867,0.101394653320,0.005691528320,0.005004882813,-0.001739501953
0.034027099609,0.000274658203,0.100891113281,0.004394531250,0.003570556641,-0.001464843750
0.035049438477,0.000900268555,0.103546142578,0.003707885742,0.002182006836,-0.001281738281
0.037826538086,0.002487182617,0.112457275391,0.003311157227,0.000137329102,-0.001296997070
0.037887573242,0.005157470703,0.116912841797,0.002609252930,-0.000503540039,-0.001358032227
0.036972045898,-0.000640869141,0.124038696289,0.001739501953,-0.001052856445,-0.001739501953
0.036727905273,-0.002899169922,0.127014160156,0.000900268555,-0.001022338867,-0.001327514648
0.031005859375,0.011856079102,0.124435424805,0.001037597656,0.000045776367,0.000488281250
0.027664184570,0.012527465820,0.119720458984,0.001113891602,0.000427246094,0.000595092773
0.025421142578,0.008865356445,0.117507934570,0.000335693359,0.000045776367,0.001312255859
0.023437500000,0.013153076172,0.112548828125,0.000686645508,-0.000015258789,0.002273559570
0.020614624023,0.021072387695,0.112518310547,-0.003677368164,-0.000762939453,0.002532958984
0.017562866211,0.023635864258,0.114334106445,-0.000732421875,-0.001281738281,0.001907348633
0.017364501953,0.021820068359,0.117752075195,-0.000823974609,-0.001739501953,0.001419067383
0.016311645508,0.026184082031,0.123306274414,-0.000991821289,-0.001785278320,0.000686645508
0.016082763672,0.026885986328,0.124908447266,-0.000656127930,-0.001480102539,-0.000015258789
0.016998291016,0.024169921875,0.126754760742,0.000686645508,-0.000579833984,-0.001617431641
0.016967773438,0.020156860352,0.125488281250,0.001174926758,-0.000015258789,-0.002365112305
0.021118164063,0.008697509766,0.126403808594,-0.000289916992,0.000503540039,-0.002471923828
0.021224975586,0.010696411133,0.124160766602,-0.000701904297,0.000869750977,-0.001892089844
0.023452758789,0.010131835938,0.118316650391,-0.000091552734,0.001220703125,-0.001235961914
0.025436401367,0.008422851563,0.117492675781,0.000076293945,0.001220703125,-0.001113891602
0.026901245117,0.009246826172,0.112152099609,0.001464843750,0.001525878906,-0.000869750977
0.027175903320,0.009368896484,0.110580444336,0.002014160156,0.001358032227,-0.000793457031
0.027542114258,0.005554199219,0.110153198242,0.001678466797,0.000152587891,-0.000442504883
0.028488159180,0.005584716797,0.114807128906,0.001037597656,-0.000366210937,0.000198364258
0.027526855469,0.009857177734,0.113388061523,0.001235961914,-0.000503540039,0.000671386719
0.025497436523,0.011062622070,0.117126464844,0.001541137695,-0.001037597656,0.000579833984
0.025253295898,0.009826660156,0.119079589844,0.001388549805,-0.001174926758,0.000549316406
0.022842407227,0.015899658203,0.124084472656,0.000503540039,-0.001266479492,0.000869750977
0.021972656250,0.017547607422,0.125274658203,0.000869750977,-0.001113891602,0.000717163086
0.020568847656,0.009292602539,0.124145507813,0.001190185547,-0.000427246094,0.000030517578
0.022399902344,0.009536743164,0.125122070313,0.000976562500,-0.000183105469,0.000305175781
0.020935058594,0.015304565430,0.123550415039,0.000350952148,0.000350952148,0.000854492188
0.020568847656,0.016754150391,0.120941162109,-0.000473022461,0.000320434570,0.000457763672
0.021347045898,0.013885498047,0.119918823242,-0.000289916992,0.000335693359,0.000198364258
0.020950317383,0.016311645508,0.114791870117,0.000854492188,0.000625610352,0.000152587891
0.021041870117,0.016525268555,0.113494873047,0.001281738281,0.000488281250,-0.000061035156
0.023193359375,0.009368896484,0.115280151367,0.001235961914,-0.000244140625,-0.000625610352
0.024734497070,0.008880615234,0.120529174805,0.000488281250,-0.000610351563,-0.000488281250
0.025009155273,0.010009765625,0.124786376953,-0.000244140625,-0.000518798828,0.000076293945
0.024963378906,0.009368896484,0.125823974609,-0.000137329102,-0.000305175781,0.000198364258
0.024642944336,0.009689331055,0.124008178711,0.000213623047,0.000427246094,0.000518798828
0.023651123047,0.010650634766,0.121215820313,0.000595092773,0.000701904297,0.000640869141
0.023147583008,0.011398315430,0.118682861328,0.000640869141,0.000640869141,0.000701904297
0.022125244141,0.013259887695,0.114593505859,0.000625610352,0.000381469727,0.000778198242
0.021209716797,0.015167236328,0.113494873047,0.000701904297,0.000183105469,0.000732421875
0.020248413086,0.015029907227,0.112136840820,0.000961303711,-0.000259399414,0.000305175781
0.020431518555,0.013916015625,0.112945556641,0.001022338867,-0.000610351563,0.000167846680
0.021301269531,0.011291503906,0.119171142578,0.000366210937,-0.001174926758,0.000213623047
0.021682739258,0.012100219727,0.122833251953,0.000488281250,-0.001190185547,0.000366210937
0.022018432617,0.011978149414,0.124862670898,0.000747680664,-0.000732421875,0.000366210937
0.023086547852,0.011001586914,0.126007080078,0.000473022461,-0.000518798828,0.000198364258
0.022140502930,0.011001586914,0.125640869141,-0.000473022461,0.000152587891,0.000045776367
0.021575927734,0.011062622070,0.121765136719,-0.000183105469,0.000335693359,0.000015258789

-0.060058593750,0.172515869141,0.059585571289,-0.000457763672,-0.010009765625,0.012557983398
-0.110214233398,0.293075561523,0.088058471680,-0.007156372070,-0.018600463867,0.007766723633
-0.130615234375,0.351135253906,0.175964355469,-0.043304443359,-0.041259765625,-0.020568847656
-0.140945434570,0.345977783203,0.304107666016,-0.056945800781,-0.052047729492,-0.034332275391
-0.147583007813,0.322784423828,0.439102172852,-0.046585083008,-0.029373168945,-0.055267333984
-0.191146850586,0.296463012695,0.457855224609,-0.032867431641,-0.002075195313,-0.066146850586
-0.201232910156,0.238677978516,0.225326538086,0.012130737305,0.062133789063,-0.089889526367
-0.173812866211,0.183776855469,0.153564453125,0.027679443359,0.072418212891,-0.099746704102
-0.149978637695,0.111236572266,0.131729125977,0.025939941406,0.074340820313,-0.105957031250
-0.106704711914,-0.047134399414,0.099975585938,0.023345947266,0.076019287109,-0.105056762695
-0.079513549805,-0.119613647461,0.070693969727,0.024612426758,0.076019287109,-0.096221923828
-0.006866455078,-0.296478271484,0.072326660156,0.012786865234,0.062896728516,-0.088516235352
0.029464721680,-0.370941162109,0.090179443359,0.003494262695,0.053497314453,-0.077743530273
0.086029052734,-0.476669311523,0.091033935547,-0.008926391602,0.039459228516,-0.046066284180
0.093643188477,-0.459075927734,0.102645874023,-0.019744873047,0.033172607422,-0.025772094727
0.090270996094,-0.347106933594,0.107452392578,-0.019363403320,0.031295776367,0.006515502930
0.078231811523,-0.291839599609,0.076339721680,-0.005645751953,0.035400390625,0.015853881836
0.053756713867,-0.187759399414,0.005676269531,0.020935058594,0.042709350586,0.027191162109
0.050033569336,-0.151672363281,-0.034576416016,0.030426025391,0.043136596680,0.030441284180
0.046142578125,-0.124328613281,-0.068496704102,0.035354614258,0.036331176758,0.033691406250
0.049179077148,-0.110168457031,-0.068740844727,0.033813476563,0.030929565430,0.034378051758
0.037948608398,-0.094345092773,-0.069381713867,0.034988403320,0.019531250000,0.036300659180
0.039825439453,-0.091033935547,-0.056365966797,0.034439086914,0.013015747070,0.037414550781
0.041046142578,-0.071456909180,-0.045471191406,0.027389526367,0.004623413086,0.040084838867
0.030975341797,-0.046539306641,-0.041168212891,0.025848388672,-0.000198364258,0.039169311523
0.030258178711,-0.041137695313,-0.031677246094,0.023132324219,-0.009460449219,0.036743164063
0.026138305664,-0.030456542969,-0.003372192383,0.016647338867,-0.013122558594,0.035797119141
0.024993896484,-0.031173706055,0.008712768555,0.014205932617,-0.015579223633,0.035064697266
0.019287109375,-0.029510498047,0.014633178711,0.013198852539,-0.020645141602,0.035369873047
0.014984130859,-0.018081665039,0.022994995117,0.015136718750,-0.025115966797,0.037872314453
0.004302978516,0.000259399414,0.044494628906,0.016952514648,-0.033920288086,0.040527343750
0.000045776367,0.009872436523,0.058624267578,0.018783569336,-0.038619995117,0.041290283203
-0.010223388672,0.024887084961,0.089019775391,0.020126342773,-0.043212890625,0.037933349609
-0.012176513672,0.039993286133,0.105895996094,0.019012451172,-0.047286987305,0.039001464844
-0.020980834961,0.060317993164,0.127883911133,0.012100219727,-0.054214477539,0.039398193359
-0.022567749023,0.074340820313,0.141387939453,0.006362915039,-0.054840087891,0.037826538086
-0.026641845703,0.098068237305,0.168869018555,0.004623413086,-0.053100585938,0.033660888672
-0.024475097656,0.103347778320,0.180541992188,0.003906250000,-0.050460815430,0.030242919922
-0.023376464844,0.105117797852,0.179168701172,0.002182006836,-0.043533325195,0.023437500000
-0.012985229492,0.095352172852,0.187850952148,-0.001785278320,-0.037857055664,0.021224975586
-0.014083862305,0.091079711914,0.182510375977,0.000442504883,-0.031494140625,0.016845703125
-0.010925292969,0.089874267578,0.149368286133,0.009490966797,-0.019439697266,0.014801025391
-0.013656616211,0.087051391602,0.142074584961,0.010437011719,-0.016799926758,0.012359619141
-0.012619018555,0.076141357422,0.138534545898,0.008956909180,-0.015472412109,0.008529663086
-0.012847900391,0.071121215820,0.141815185547,0.007598876953,-0.015518188477,0.007263183594
-0.013885498047,0.072372436523,0.131164550781,0.004119873047,-0.013946533203,0.006134033203
-0.014480590820,0.074478149414,0.128936767578,0.004165649414,-0.013381958008,0.005020141602
-0.012817382813,0.071533203125,0.127273559570,0.003601074219,-0.011993408203,0.001068115234
-0.011932373047,0.074569702148,0.126235961914,0.000930786133,-0.011062622070,-0.000900268555
-0.006805419922,0.055297851563,0.118743896484,-0.001663208008,-0.008285522461,-0.005523681641
-0.005310058594,0.047332763672,0.112350463867,-0.001983642578,-0.006881713867,-0.007217407227
0.004989624023,0.069549560547,0.081665039063,0.008071899414,-0.006759643555,-0.009643554688
0.054931640625,0.058715820313,0.150878906250,0.016052246094,-0.013580322266,-0.013519287109
0.065399169922,-0.014450073242,0.417724609375,0.000366210937,-0.018722534180,-0.016189575195
0.022399902344,-0.026611328125,0.441833496094,-0.011734008789,-0.005020141602,-0.015502929688
0.047546386719,-0.005386352539,0.182723999023,0.008987426758,0.023239135742,-0.005569458008
