ax,ay,az,gx,gy,gz
-0.006622314453,0.289199829102,0.004776000977,-0.023559570313,0.020324707031,0.022003173828
-0.005905151367,0.317382812500,0.002593994141,-0.026245117188,0.017883300781,0.013916015625
-0.009048461914,0.365036010742,0.001663208008,-0.031448364258,0.012878417969,-0.001098632813
-0.013504028320,0.385528564453,0.001937866211,-0.031112670898,0.011306762695,-0.010330200195
-0.021957397461,0.349014282227,0.019760131836,-0.033843994141,0.015884399414,-0.029754638672
-0.037017822266,0.331542968750,-0.005538940430,-0.040130615234,0.020568847656,-0.038986206055
-0.057662963867,0.277053833008,0.043029785156,-0.043502807617,0.015670776367,-0.064987182617
-0.067779541016,0.232788085938,0.059387207031,-0.036163330078,0.017639160156,-0.076309204102
-0.093276977539,0.187774658203,0.068283081055,-0.020660400391,0.019790649414,-0.092453002930
-0.107604980469,0.158447265625,0.079025268555,-0.013168334961,0.021713256836,-0.102005004883
-0.118438720703,0.048126220703,0.080215454102,-0.002120971680,0.029739379883,-0.117218017578
-0.120010375977,0.005325317383,0.059646606445,0.003906250000,0.034820556641,-0.121322631836
-0.123535156250,-0.017547607422,0.020996093750,0.019409179688,0.041748046875,-0.122467041016
-0.115509033203,-0.092056274414,-0.024902343750,0.023818969727,0.041076660156,-0.120452880859
-0.107559204102,-0.158615112305,-0.071426391602,0.025604248047,0.035583496094,-0.102981567383
-0.035522460938,-0.343536376953,-0.175323486328,-0.002975463867,0.032577514648,-0.085769653320
0.006820678711,-0.373352050781,-0.178405761719,-0.025985717773,0.023727416992,-0.034362792969
0.079513549805,-0.403045654297,-0.236282348633,-0.063339233398,0.018066406250,-0.016510009766
0.089675903320,-0.357421875000,-0.223175048828,-0.065353393555,0.008636474609,0.003570556641
0.096389770508,-0.244293212891,-0.164443969727,-0.041107177734,-0.011199951172,0.031250000000
0.101577758789,-0.219512939453,-0.138122558594,-0.032638549805,-0.019439697266,0.031158447266
0.109512329102,-0.204193115234,-0.101989746094,-0.012329101563,-0.029678344727,0.031341552734
0.107879638672,-0.167266845703,-0.074096679688,-0.005935668945,-0.033477783203,0.045715332031
0.124130249023,-0.171569824219,-0.004058837891,0.002471923828,-0.036621093750,0.043975830078
0.129974365234,-0.188720703125,0.042037963867,0.003295898438,-0.036880493164,0.042297363281
0.141021728516,-0.184707641602,0.081497192383,0.007003784180,-0.025222778320,0.050170898438
0.126205444336,-0.171447753906,0.058578491211,0.011352539063,-0.017272949219,0.054122924805
0.094497680664,-0.134323120117,0.022064208984,0.008300781250,-0.006271362305,0.062820434570
0.078338623047,-0.106735229492,0.016098022461,0.009262084961,-0.002761840820,0.066436767578
0.041030883789,-0.045883178711,0.010742187500,0.019104003906,0.001037597656,0.068374633789
0.026763916016,-0.030761718750,0.010818481445,0.024307250977,0.001296997070,0.065200805664
-0.003097534180,0.006530761719,0.053253173828,0.026626586914,-0.001235961914,0.062713623047
-0.011627197266,0.044433593750,0.049392700195,0.027938842773,0.003433227539,0.067352294922
-0.027770996094,0.130661010742,0.053726196289,0.028381347656,0.002304077148,0.071609497070
-0.030227661133,0.184310913086,0.062301635742,0.027175903320,0.001770019531,0.069915771484
-0.024581909180,0.209243774414,0.061294555664,0.011154174805,0.010894775391,0.067703247070
-0.028930664063,0.316131591797,0.041870117188,0.001708984375,0.010574340820,0.065490722656
-0.026168823242,0.345367431641,0.023895263672,0.001388549805,0.012420654297,0.056259155273
-0.020294189453,0.371307373047,0.001312255859,0.003082275391,0.013244628906,0.036361694336
-0.018936157227,0.384140014648,-0.018463134766,0.002609252930,0.013931274414,0.027145385742
-0.022796630859,0.408874511719,-0.046020507813,0.005157470703,0.011962890625,0.008621215820
-0.022399902344,0.406097412109,-0.052963256836,0.007293701172,0.010299682617,-0.002685546875
-0.039779663086,0.387451171875,-0.017150878906,0.001800537109,0.004653930664,-0.019332885742
-0.004638671875,0.359024047852,-0.060317993164,-0.002655029297,0.005035400391,-0.031600952148
-0.013534545898,0.249877929688,-0.065734863281,-0.000762939453,0.008529663086,-0.055130004883
-0.010238647461,0.242050170898,-0.036163330078,-0.012298583984,0.002883911133,-0.048583984375
-0.013610839844,0.219741821289,-0.022247314453,-0.021896362305,-0.004089355469,-0.049102783203
-0.019088745117,0.215942382813,-0.020874023438,-0.018157958984,-0.004943847656,-0.056533813477
-0.028701782227,0.148330688477,0.016052246094,-0.011978149414,-0.010787963867,-0.071777343750
-0.026336669922,0.126052856445,0.036590576172,-0.008132934570,-0.009780883789,-0.077636718750
-0.026214599609,0.023391723633,0.049087524414,-0.000289916992,-0.001480102539,-0.090545654297
-0.019744873047,-0.007781982422,0.054489135742,0.000335693359,0.000747680664,-0.088806152344
-0.023101806641,-0.043991088867,0.019592285156,0.013168334961,0.007354736328,-0.089294433594
-0.016571044922,-0.118835449219,-0.038467407227,0.018432617188,0.011062622070,-0.085205078125
-0.011016845703,-0.177261352539,-0.088912963867,0.010971069336,-0.004333496094,-0.075256347656
0.030563354492,-0.334518432617,-0.130493164063,-0.011901855469,-0.019515991211,-0.055694580078
0.080718994141,-0.375701904297,-0.005233764648,-0.053009033203,-0.034515380859,-0.004348754883
0.122695922852,-0.278869628906,-0.005325317383,-0.053833007813,-0.021774291992,0.023559570313
0.137329101563,-0.205307006836,0.015899658203,-0.024780273438,-0.015899658203,0.048355102539
0.170761108398,-0.121673583984,0.014816284180,-0.017303466797,-0.021316528320,0.039016723633
0.188201904297,-0.073196411133,0.009658813477,-0.004455566406,-0.024291992188,0.033416748047
0.211288452148,-0.049316406250,0.014724731445,0.025711059570,-0.021652221680,0.029937744141
0.196853637695,-0.054656982422,0.022644042969,0.029525756836,-0.018615722656,0.027770996094
0.184356689453,-0.107727050781,0.042617797852,0.022064208984,-0.013839721680,0.026214599609
0.176559448242,-0.130783081055,0.052200317383,0.015090942383,-0.010025024414,0.027542114258
0.150451660156,-0.104644775391,0.018585205078,0.016845703125,-0.000366210937,0.033859252930
0.126098632813,-0.080551147461,0.002868652344,0.021209716797,0.001159667969,0.035537719727
0.092132568359,-0.025405883789,0.007766723633,0.022140502930,-0.001281738281,0.028320312500
0.082717895508,-0.011581420898,0.024414062500,0.022949218750,-0.002868652344,0.021301269531
0.076812744141,0.074264526367,0.036605834961,0.010879516602,-0.000366210937,0.033081054688
0.057266235352,0.076126098633,0.069610595703,0.005081176758,0.000289916992,0.023056030273
0.060852050781,0.076339721680,0.040344238281,0.009918212891,0.019424438477,0.010971069336
0.065704345703,0.107360839844,0.043075561523,0.002395629883,0.020477294922,0.017456054688
0.070327758789,0.111679077148,0.033081054688,0.003341674805,0.019943237305,0.019744873047
0.071655273438,0.107543945313,0.026489257813,0.008590698242,0.014114379883,0.022460937500
0.074020385742,0.129180908203,0.031402587891,0.008850097656,0.008544921875,0.025695800781
0.075805664063,0.157043457031,0.049896240234,0.009689331055,-0.003036499023,0.027465820313
0.077255249023,0.169876098633,0.044860839844,0.009536743164,-0.002105712891,0.025314331055
0.081542968750,0.181869506836,0.033966064453,0.009033203125,-0.003936767578,0.019485473633
0.083114624023,0.187118530273,0.032043457031,0.008804321289,-0.005874633789,0.017242431641
0.085952758789,0.195083618164,0.026412963867,0.008972167969,-0.009613037109,0.011505126953
0.080062866211,0.192291259766,0.026397705078,0.008682250977,-0.010894775391,0.007507324219
0.087814331055,0.179931640625,0.034576416016,0.005798339844,-0.012130737305,0.002136230469
0.089340209961,0.174102783203,0.041015625000,0.003570556641,-0.012298583984,0.001281738281
0.089401245117,0.167938232422,0.048843383789,0.001968383789,-0.012207031250,-0.000656127930
0.096618652344,0.134262084961,0.051620483398,0.001937866211,-0.007186889648,-0.007034301758
0.095367431641,0.122543334961,0.044723510742,0.000289916992,-0.004577636719,-0.008682250977
0.096328735352,0.100753784180,0.039199829102,-0.003997802734,-0.003234863281,-0.010360717773
0.098052978516,0.091293334961,0.036895751953,-0.004608154297,-0.003158569336,-0.010635375977
0.101058959961,0.073043823242,0.037200927734,-0.006164550781,-0.002807617188,-0.010345458984
0.101623535156,0.062042236328,0.032958984375,-0.007003784180,-0.002685546875,-0.010040283203
0.105651855469,0.040435791016,0.033798217773,-0.007858276367,-0.002212524414,-0.008789062500
0.108062744141,0.035293579102,0.031784057617,-0.007049560547,-0.001571655273,-0.007888793945
0.107910156250,0.035064697266,0.027175903320,-0.006088256836,0.000061035156,-0.005523681641
0.108535766602,0.032958984375,0.023284912109,-0.005874633789,0.000991821289,-0.004974365234
0.108718872070,0.030105590820,0.020599365234,-0.005142211914,0.001907348633,-0.003890991211
0.106521606445,0.029739379883,0.015823364258,-0.004180908203,0.002227783203,-0.003524780273
0.105789184570,0.030075073242,0.014236450195,-0.003234863281,0.002456665039,-0.003387451172
0.104507446289,0.033111572266,0.012771606445,-0.002273559570,0.002716064453,-0.002975463867
0.103622436523,0.034378051758,0.013000488281,-0.002426147461,0.002593994141,-0.002548217773
0.103134155273,0.030807495117,0.015747070313,-0.002044677734,0.002731323242,-0.001586914063
0.101745605469,0.033355712891,0.012756347656,-0.001525878906,0.003005981445,-0.000961303711
0.100326538086,0.042984008789,0.009460449219,0.000427246094,0.003204345703,0.000305175781
0.099151611328,0.047515869141,0.006576538086,0.001144409180,0.003051757813,0.000656127930

0.072097778320,0.222396850586,0.025878906250,-0.021102905273,0.012725830078,0.013442993164
0.071472167969,0.272079467773,0.029922485352,-0.027435302734,0.013595581055,0.012451171875
0.079925537109,0.368881225586,0.022811889648,-0.037368774414,0.014694213867,-0.001419067383
0.091339111328,0.397491455078,0.020797729492,-0.040756225586,0.014419555664,-0.011322021484
0.093002319336,0.401336669922,0.039627075195,-0.042114257813,0.017013549805,-0.035888671875
0.090667724609,0.325622558594,0.075988769531,-0.035018920898,0.020065307617,-0.044586181641
0.069168090820,0.303100585938,0.076614379883,-0.027526855469,0.023284912109,-0.053161621094
0.008010864258,0.269760131836,0.067291259766,-0.017745971680,0.029586791992,-0.073577880859
-0.017959594727,0.215637207031,0.063232421875,-0.017074584961,0.030792236328,-0.085647583008
-0.049957275391,0.114395141602,0.069320678711,-0.014556884766,0.026535034180,-0.102569580078
-0.068557739258,0.052795410156,0.048507690430,-0.010986328125,0.027053833008,-0.107345581055
-0.070907592773,-0.037338256836,0.002120971680,0.000564575195,0.027954101563,-0.109222412109
-0.077804565430,-0.051757812500,-0.025344848633,0.007568359375,0.026550292969,-0.106994628906
-0.075515747070,-0.084472656250,-0.046218872070,0.017669677734,0.017349243164,-0.104110717773
-0.069168090820,-0.082870483398,-0.046768188477,0.026077270508,0.012145996094,-0.105392456055
-0.070404052734,-0.133850097656,-0.095825195313,0.036071777344,0.008666992188,-0.105163574219
-0.046447753906,-0.215133666992,-0.113204956055,0.020126342773,-0.008392333984,-0.071853637695
-0.039474487305,-0.237777709961,-0.121856689453,0.010375976563,-0.016464233398,-0.048110961914
0.010894775391,-0.277755737305,-0.014816284180,-0.010253906250,-0.036743164063,-0.010986328125
-0.008880615234,-0.280044555664,-0.011337280273,-0.027511596680,-0.014770507813,0.000228881836
0.021713256836,-0.317794799805,-0.163619995117,-0.052963256836,0.029922485352,0.019348144531
0.025741577148,-0.278625488281,-0.160034179688,-0.052597045898,0.015411376953,0.042129516602
0.040359497070,-0.261230468750,-0.173507690430,-0.034881591797,-0.001190185547,0.061630249023
0.061019897461,-0.216461181641,-0.167373657227,-0.028701782227,-0.009658813477,0.072128295898
0.059722900391,-0.190902709961,-0.145721435547,-0.017654418945,-0.022659301758,0.062362670898
0.081451416016,-0.179840087891,-0.139312744141,-0.013107299805,-0.026870727539,0.054367065430
0.094207763672,-0.187271118164,-0.120346069336,-0.010803222656,-0.030441284180,0.049636840820
0.114364624023,-0.197814941406,-0.055145263672,-0.003158569336,-0.032623291016,0.052703857422
0.122070312500,-0.180191040039,-0.031448364258,0.000289916992,-0.031845092773,0.058380126953
0.109359741211,-0.114471435547,0.020202636719,0.004852294922,-0.027267456055,0.068786621094
0.106735229492,-0.104843139648,0.054870605469,0.007995605469,-0.022567749023,0.071746826172
0.088241577148,-0.049041748047,0.088790893555,0.004104614258,-0.008300781250,0.074951171875
0.071517944336,-0.016204833984,0.087234497070,0.000747680664,0.000167846680,0.070831298828
0.050537109375,-0.003585815430,0.056396484375,0.010421752930,0.010604858398,0.052963256836
0.020004272461,0.019180297852,0.066543579102,0.017578125000,0.010803222656,0.051712036133
0.006271362305,0.050125122070,0.066879272461,0.019363403320,0.014648437500,0.057434082031
0.004135131836,0.133682250977,0.043655395508,0.019912719727,0.019821166992,0.061859130859
0.007171630859,0.140579223633,0.046981811523,0.020858764648,0.017959594727,0.055511474609
0.012054443359,0.164245605469,0.065582275391,0.017410278320,0.017593383789,0.052001953125
0.021072387695,0.182968139648,0.065734863281,0.018569946289,0.019226074219,0.048217773438
0.019653320313,0.205688476563,0.058120727539,0.023101806641,0.021453857422,0.044128417969
0.006820678711,0.259353637695,0.032363891602,0.031402587891,0.021621704102,0.035018920898
0.012390136719,0.241683959961,0.025604248047,0.038726806641,0.019790649414,0.024078369141
-0.001770019531,0.231811523438,-0.024475097656,0.028350830078,0.020339965820,0.018966674805
-0.001953125000,0.266326904297,-0.025405883789,0.012115478516,0.014816284180,0.026000976563
0.000747680664,0.302459716797,-0.030975341797,-0.003753662109,0.006225585938,0.025390625000
0.018325805664,0.372238159180,-0.028335571289,-0.007476806641,0.001800537109,0.017776489258
0.031356811523,0.400024414062,-0.009979248047,-0.009704589844,-0.002960205078,0.006851196289
0.057723999023,0.398712158203,0.022384643555,-0.005477905273,-0.005447387695,-0.017364501953
0.059295654297,0.376739501953,0.023468017578,-0.004806518555,-0.003768920898,-0.028015136719
0.037933349609,0.293151855469,0.020553588867,-0.006500244141,0.000061035156,-0.047134399414
0.034469604492,0.242050170898,0.022583007813,-0.008010864258,0.002136230469,-0.055175781250
0.036056518555,0.202590942383,0.027938842773,-0.008728027344,0.005737304688,-0.064865112305
0.039108276367,0.178558349609,0.035354614258,-0.008438110352,0.007736206055,-0.067642211914
0.037887573242,0.170867919922,0.032714843750,-0.007247924805,0.010391235352,-0.074569702148
0.031021118164,0.114562988281,0.030349731445,-0.008560180664,0.014022827148,-0.078414916992
0.029037475586,0.067657470703,0.020507812500,-0.009933471680,0.015472412109,-0.080368041992
0.035354614258,0.022796630859,0.003250122070,-0.008316040039,0.016677856445,-0.077697753906
0.035095214844,0.011535644531,-0.010253906250,-0.003479003906,0.016616821289,-0.076065063477
0.037506103516,0.003585815430,-0.013442993164,0.001739501953,0.014328002930,-0.073760986328
0.038208007813,-0.008621215820,-0.023422241211,0.003051757813,0.013519287109,-0.074554443359
0.040435791016,-0.026565551758,-0.028518676758,0.005401611328,0.013046264648,-0.076324462891
0.036331176758,-0.087600708008,-0.047073364258,0.002593994141,0.014572143555,-0.075897216797
0.033416748047,-0.155792236328,-0.051040649414,-0.004302978516,0.012252807617,-0.073913574219
0.049362182617,-0.164230346680,-0.056549072266,-0.016006469727,0.003738403320,-0.036071777344
0.055786132813,-0.159042358398,-0.052413940430,-0.020446777344,-0.001403808594,-0.023040771484
0.068527221680,-0.205612182617,-0.031539916992,-0.028976440430,-0.006973266602,-0.005249023438
0.076080322266,-0.219360351563,-0.011642456055,-0.039810180664,-0.003021240234,0.003402709961
0.091888427734,-0.203247070313,-0.064727783203,-0.051147460938,0.015731811523,0.017578125000
0.094543457031,-0.176834106445,-0.061508178711,-0.051147460938,0.013473510742,0.027313232422
0.095352172852,-0.161636352539,-0.072311401367,-0.044235229492,0.012039184570,0.036178588867
0.094039916992,-0.145019531250,-0.106262207031,-0.039978027344,0.009033203125,0.038482666016
0.091384887695,-0.142684936523,-0.119735717773,-0.034774780273,0.002670288086,0.039962768555
0.070159912109,-0.082244873047,-0.080245971680,-0.023345947266,-0.014358520508,0.042037963867
0.094726562500,-0.098861694336,-0.049026489258,0.004135131836,-0.016799926758,0.043090820313
0.115020751953,-0.180740356445,-0.046005249023,0.032623291016,-0.017852783203,0.039016723633
0.116394042969,-0.118881225586,-0.004959106445,0.017471313477,-0.021560668945,0.043731689453
0.114547729492,-0.067398071289,0.026214599609,0.019836425781,-0.017623901367,0.040115356445
0.110244750977,-0.066574096680,0.017944335938,0.020965576172,-0.013626098633,0.035079956055
0.105422973633,-0.061325073242,0.011596679688,0.010238647461,-0.008483886719,0.028488159180
0.100280761719,-0.047393798828,-0.002899169922,0.006118774414,-0.006484985352,0.024597167969
0.090850830078,-0.032333374023,-0.006454467773,0.002975463867,-0.005172729492,0.022277832031
0.080642700195,-0.006942749023,-0.023925781250,0.005798339844,-0.001464843750,0.016647338867
0.083877563477,-0.006301879883,-0.014007568359,0.010452270508,-0.002792358398,0.014190673828
0.074676513672,0.001510620117,-0.025863647461,0.022659301758,0.001205444336,0.013595581055
0.074676513672,0.013442993164,-0.022247314453,0.024734497070,0.000625610352,0.018600463867
0.072540283203,0.023193359375,-0.018310546875,0.028259277344,-0.004516601563,0.026016235352
0.074569702148,0.030975341797,0.007568359375,0.026184082031,-0.009048461914,0.027999877930
0.078231811523,0.051681518555,0.021469116211,0.025848388672,-0.011093139648,0.035232543945
0.076370239258,0.082839965820,0.033859252930,0.026367187500,-0.009994506836,0.037338256836
0.075683593750,0.086578369141,0.019073486328,0.025939941406,-0.008621215820,0.037597656250
0.074447631836,0.096771240234,0.019500732422,0.022933959961,-0.009765625000,0.039611816406
0.079635620117,0.108749389648,0.030868530273,0.021453857422,-0.010681152344,0.039245605469
0.086593627930,0.157150268555,0.062530517578,0.022048950195,-0.010299682617,0.038757324219
0.094512939453,0.182968139648,0.058776855469,0.020858764648,-0.009017944336,0.036575317383
0.096862792969,0.197433471680,0.062271118164,0.019256591797,-0.007629394531,0.033081054688
0.102874755859,0.224121093750,0.063079833984,0.019256591797,-0.004776000977,0.028442382813
0.104492187500,0.217208862305,0.059097290039,0.018371582031,-0.002929687500,0.021835327148
0.097381591797,0.211334228516,0.063705444336,0.017120361328,-0.009963989258,0.005645751953
0.088684082031,0.183319091797,0.041290283203,0.017501831055,-0.007705688477,-0.002624511719
0.086730957031,0.164657592773,0.038314819336,0.014663696289,-0.005966186523,-0.008422851563
0.087707519531,0.151947021484,0.039001464844,0.015548706055,-0.005676269531,-0.011642456055
0.093841552734,0.147964477539,0.048675537109,0.016250610352,-0.005935668945,-0.014083862305
0.100814819336,0.135421752930,0.051086425781,0.013793945313,-0.004577636719,-0.016906738281

0.070312500000,0.217864990234,0.026504516602,-0.009948730469,0.008346557617,0.009338378906
0.079635620117,0.239593505859,0.030639648438,-0.013427734375,0.008438110352,0.007629394531
0.088211059570,0.307250976563,0.059432983398,-0.032882690430,0.007858276367,0.001953125000
0.098602294922,0.323501586914,0.083038330078,-0.040679931641,0.010391235352,-0.003738403320
0.111694335938,0.326019287109,0.098297119141,-0.044860839844,0.019699096680,-0.023941040039
0.103103637695,0.308792114258,0.087509155273,-0.043167114258,0.024398803711,-0.035522460938
0.081970214844,0.288040161133,0.083129882813,-0.035339355469,0.030105590820,-0.056365966797
0.045455932617,0.219711303711,0.065307617188,-0.030166625977,0.031692504883,-0.066925048828
0.030654907227,0.180130004883,0.066528320313,-0.027465820313,0.032058715820,-0.082153320313
0.006881713867,0.112350463867,0.053482055664,-0.021865844727,0.031860351563,-0.088516235352
-0.002761840820,0.069122314453,0.039901733398,-0.019180297852,0.032043457031,-0.092163085938
-0.014190673828,-0.017425537109,0.021652221680,-0.013854980469,0.029418945313,-0.094573974609
-0.017196655273,-0.042449951172,0.006393432617,-0.010040283203,0.028915405273,-0.092102050781
-0.014343261719,-0.085098266602,-0.027725219727,-0.004730224609,0.023086547852,-0.084274291992
-0.010040283203,-0.088455200195,-0.042968750000,-0.000747680664,0.019073486328,-0.080581665039
-0.013488769531,-0.096252441406,-0.063812255859,0.011337280273,0.009582519531,-0.085586547852
-0.007263183594,-0.097564697266,-0.081802368164,0.019439697266,0.004486083984,-0.077804565430
-0.024887084961,-0.240341186523,-0.103790283203,0.005172729492,-0.004058837891,-0.049850463867
-0.008529663086,-0.321777343750,-0.090454101563,-0.016189575195,-0.007873535156,-0.030914306641
0.029495239258,-0.305267333984,-0.088378906250,-0.050964355469,-0.008544921875,0.015274047852
0.062789916992,-0.213211059570,-0.056350708008,-0.051147460938,-0.011901855469,0.035858154297
0.067825317383,-0.211807250977,-0.110870361328,-0.038223266602,0.033569335938,0.015884399414
0.078353881836,-0.184661865234,-0.092681884766,-0.037811279297,0.026229858398,0.023239135742
0.081558227539,-0.179702758789,-0.110931396484,-0.026214599609,0.014953613281,0.033676147461
0.078811645508,-0.179550170898,-0.110229492188,-0.022033691406,0.007980346680,0.035980224609
0.077148437500,-0.165237426758,-0.109771728516,-0.017425537109,-0.001098632813,0.047012329102
0.075088500977,-0.163574218750,-0.111755371094,-0.014053344727,-0.005111694336,0.050781250000
0.072845458984,-0.158401489258,-0.103347778320,-0.012100219727,-0.011016845703,0.050399780273
0.073226928711,-0.160415649414,-0.095672607422,-0.008163452148,-0.012084960938,0.047210693359
0.074356079102,-0.172561645508,-0.074707031250,-0.003616333008,-0.017395019531,0.050048828125
0.088989257813,-0.121780395508,-0.013061523438,-0.002838134766,-0.018661499023,0.054656982422
0.090881347656,-0.091094970703,0.011962890625,0.003295898438,-0.018112182617,0.049057006836
0.084472656250,-0.054946899414,0.012252807617,0.016250610352,-0.015304565430,0.042984008789
0.081405639648,-0.037445068359,0.007690429688,0.016555786133,-0.014816284180,0.036193847656
0.077865600586,-0.033813476563,0.014892578125,0.020523071289,-0.012374877930,0.025146484375
0.080276489258,-0.032379150391,0.020599365234,0.021850585938,-0.009704589844,0.023834228516
0.075897216797,-0.028335571289,0.038284301758,0.027999877930,-0.004852294922,0.024246215820
0.076736450195,-0.013793945313,0.035705566406,0.033508300781,-0.001983642578,0.027008056641
0.067230224609,0.011123657227,0.031356811523,0.041458129883,0.001647949219,0.032531738281
0.066482543945,0.022735595703,0.038345336914,0.040893554688,0.002639770508,0.035186767578
0.066589355469,0.046798706055,0.045013427734,0.038360595703,0.005111694336,0.041152954102
0.066696166992,0.067825317383,0.040573120117,0.037490844727,0.006378173828,0.045333862305
0.060623168945,0.083099365234,0.041809082031,0.034118652344,0.008453369141,0.049270629883
0.056625366211,0.132904052734,0.041885375977,0.034347534180,0.009887695313,0.048782348633
0.053756713867,0.172195434570,0.031066894531,0.033981323242,0.011169433594,0.048171997070
0.054336547852,0.218673706055,0.024948120117,0.027786254883,0.009552001953,0.041397094727
0.024276733398,0.292510986328,0.069396972656,0.022949218750,0.006805419922,0.041427612305
0.064071655273,0.334762573242,0.085311889648,0.014038085938,-0.002410888672,0.019897460938
0.071777343750,0.360717773438,0.030426025391,0.008712768555,0.016967773438,0.014801025391
0.104232788086,0.368347167969,0.041900634766,-0.008438110352,0.007751464844,0.009933471680
0.098937988281,0.352401733398,0.028717041016,-0.010345458984,0.006164550781,0.003097534180
0.093383789063,0.289596557617,0.004837036133,-0.002166748047,0.001953125000,-0.017425537109
0.092285156250,0.264739990234,0.012374877930,0.000778198242,-0.001327514648,-0.025588989258
0.090866088867,0.232742309570,0.023513793945,0.000595092773,-0.001190185547,-0.036743164063
0.080276489258,0.177093505859,0.040344238281,-0.002944946289,0.000579833984,-0.038894653320
0.078399658203,0.159759521484,0.044281005859,-0.009460449219,0.006011962891,-0.036514282227
0.081771850586,0.143203735352,0.046569824219,-0.025344848633,0.008789062500,-0.034729003906
0.085922241211,0.141601562500,0.052032470703,-0.032730102539,0.012374877930,-0.033325195313
0.086273193359,0.131301879883,0.042602539063,-0.039123535156,0.020050048828,-0.036041259766
0.080612182617,0.126724243164,0.027465820313,-0.034927368164,0.022766113281,-0.040466308594
0.060516357422,0.091018676758,-0.006134033203,-0.025909423828,0.023605346680,-0.051177978516
0.054534912109,0.064086914063,-0.013198852539,-0.022598266602,0.022033691406,-0.056259155273
0.052749633789,0.027542114258,-0.011489868164,-0.009841918945,0.019668579102,-0.063949584961
0.049819946289,0.009490966797,-0.030700683594,-0.002670288086,0.019256591797,-0.066009521484
0.041000366211,-0.006286621094,-0.056442260742,0.003509521484,0.015457153320,-0.063812255859
0.039672851563,-0.019256591797,-0.067977905273,0.009429931641,0.012496948242,-0.067840576172
0.031600952148,-0.036956787109,-0.072555541992,0.012115478516,0.000717163086,-0.068634033203
0.027618408203,-0.087326049805,-0.078277587891,0.011611938477,-0.004425048828,-0.068908691406
0.008651733398,-0.083206176758,-0.086898803711,0.004928588867,-0.018173217773,-0.044128417969
0.049682617188,-0.076065063477,-0.001434326172,0.003784179688,-0.028854370117,-0.039688110352
0.034164428711,-0.176025390625,-0.111022949219,0.003509521484,0.035766601563,-0.066711425781
0.049087524414,-0.194763183594,-0.111587524414,-0.001831054688,0.026733398438,-0.057342529297
0.057128906250,-0.215759277344,-0.089447021484,-0.011810302734,0.001617431641,-0.023803710938
0.066802978516,-0.208938598633,-0.063278198242,-0.017303466797,-0.002960205078,-0.010269165039
0.081970214844,-0.209213256836,-0.052368164063,-0.024749755859,0.001770019531,0.005004882813
0.085494995117,-0.195358276367,-0.053619384766,-0.028335571289,0.002456665039,0.012878417969
0.087188720703,-0.176986694336,-0.069564819336,-0.027893066406,0.001083374023,0.026229858398
0.085159301758,-0.175827026367,-0.080230712891,-0.026458740234,-0.000152587891,0.031372070313
0.080062866211,-0.154663085938,-0.084976196289,-0.022033691406,-0.003829956055,0.038986206055
0.073211669922,-0.120849609375,-0.080856323242,-0.015365600586,-0.005218505859,0.040130615234
0.091873168945,-0.142410278320,-0.085647583008,-0.007369995117,-0.009338378906,0.041458129883
0.080795288086,-0.115478515625,-0.077468872070,-0.003326416016,-0.013351440430,0.043212890625
0.079025268555,-0.113662719727,-0.070388793945,0.001068115234,-0.015197753906,0.045639038086
0.087753295898,-0.105957031250,-0.035064697266,0.006011962891,-0.017303466797,0.046447753906
0.091232299805,-0.070922851563,-0.029983520508,0.006881713867,-0.017166137695,0.046859741211
0.082565307617,-0.041168212891,-0.008804321289,0.018997192383,-0.018081665039,0.041534423828
0.081054687500,-0.052154541016,-0.018005371094,0.021469116211,-0.015930175781,0.037368774414
0.085189819336,-0.029769897461,-0.011123657227,0.012908935547,-0.012771606445,0.035400390625
0.082855224609,-0.020828247070,-0.014099121094,0.016021728516,-0.011428833008,0.033645629883
0.075973510742,-0.015380859375,-0.026153564453,0.025161743164,-0.010192871094,0.027816772461
0.073883056641,-0.026092529297,-0.027694702148,0.026916503906,-0.011093139648,0.024948120117
0.066497802734,-0.018615722656,0.006271362305,0.021850585938,-0.012496948242,0.025833129883
0.071716308594,-0.008560180664,0.018463134766,0.022827148438,-0.011291503906,0.026428222656
0.069534301758,0.021896362305,0.021392822266,0.033462524414,-0.008651733398,0.026107788086
0.072326660156,0.018569946289,0.020339965820,0.038696289063,-0.008529663086,0.028305053711
0.080505371094,0.029632568359,0.024047851563,0.042282104492,-0.010818481445,0.035812377930
0.074234008789,0.080184936523,0.030822753906,0.044647216797,-0.014572143555,0.034072875977
0.074066162109,0.075653076172,0.066116333008,0.047897338867,-0.010589599609,0.016036987305
0.092727661133,0.088333129883,0.044097900391,0.046325683594,-0.009231567383,0.019317626953
0.091293334961,0.089675903320,0.064590454102,0.037857055664,-0.013137817383,0.022918701172
0.097671508789,0.098632812500,0.063827514648,0.025024414063,-0.011642456055,0.024566650391
0.094680786133,0.111892700195,0.075347900391,0.023101806641,-0.014068603516,0.024719238281
0.109466552734,0.116256713867,0.072082519531,0.026794433594,-0.018066406250,0.022216796875
0.109069824219,0.148056030273,0.115997314453,0.030059814453,-0.026443481445,0.020523071289

0.121765136719,0.094696044922,0.168914794922,-0.006622314453,-0.011383056641,0.023941040039
0.145507812500,0.156250000000,0.237762451172,-0.006729125977,-0.003662109375,0.028320312500
0.179443359375,0.315933227539,0.289855957031,0.000350952148,0.024963378906,0.020431518555
0.162170410156,0.387939453125,0.256210327148,0.006210327148,0.039108276367,0.006027221680
0.086166381836,0.441574096680,0.153381347656,0.006652832031,0.058029174805,-0.035720825195
0.044265747070,0.390213012695,0.109161376953,0.002593994141,0.061355590820,-0.058288574219
0.008148193359,0.297348022461,0.085067749023,-0.013641357422,0.062149047852,-0.088745117188
-0.024444580078,0.132308959961,0.060440063477,-0.018478393555,0.061492919922,-0.091827392578
-0.031234741211,0.080902099609,0.041931152344,-0.022109985352,0.060424804688,-0.090042114258
-0.024871826172,0.019531250000,0.029937744141,-0.027893066406,0.055099487305,-0.088180541992
-0.022338867188,0.000930786133,0.030212402344,-0.027252197266,0.051940917969,-0.086288452148
-0.026962280273,-0.042480468750,-0.001022338867,-0.016418457031,0.049011230469,-0.085021972656
-0.027755737305,-0.075119018555,-0.032638549805,-0.011749267578,0.045288085938,-0.084793090820
-0.012496948242,-0.064132690430,-0.055984497070,0.002838134766,0.032135009766,-0.072998046875
-0.002029418945,-0.081192016602,-0.075561523438,0.010192871094,0.028549194336,-0.077453613281
0.002120971680,-0.065979003906,-0.105163574219,0.023544311523,0.016235351563,-0.057510375977
0.000961303711,-0.076324462891,-0.101165771484,0.028381347656,0.005920410156,-0.055603027344
0.030303955078,-0.079483032227,-0.032455444336,0.039352416992,-0.022644042969,-0.046585083008
-0.041580200195,-0.072052001953,-0.022003173828,0.042098999023,-0.004104614258,-0.047073364258
-0.002624511719,-0.163940429688,-0.191070556641,0.024414062500,0.054382324219,-0.059844970703
-0.018371582031,-0.171188354492,-0.183303833008,0.020050048828,0.032272338867,-0.042938232422
-0.008224487305,-0.212936401367,-0.175750732422,0.006851196289,0.020736694336,-0.025253295898
-0.008438110352,-0.235733032227,-0.179595947266,-0.002914428711,0.021362304688,-0.015228271484
-0.006072998047,-0.271560668945,-0.190811157227,-0.024871826172,0.017486572266,0.009567260742
-0.000991821289,-0.272994995117,-0.196914672852,-0.034057617188,0.014831542969,0.021652221680
-0.002914428711,-0.255447387695,-0.202316284180,-0.032379150391,0.004302978516,0.042572021484
-0.004714965820,-0.263565063477,-0.191177368164,-0.028762817383,-0.001922607422,0.051498413086
0.006744384766,-0.253860473633,-0.151336669922,-0.036056518555,-0.011550903320,0.071319580078
0.013946533203,-0.224777221680,-0.134414672852,-0.035308837891,-0.013610839844,0.079528808594
0.010147094727,-0.165542602539,-0.119735717773,-0.019256591797,-0.020263671875,0.090026855469
0.004592895508,-0.145202636719,-0.110107421875,-0.012268066406,-0.024063110352,0.090835571289
0.022994995117,-0.130142211914,-0.062866210938,-0.000183105469,-0.030807495117,0.088775634766
0.022949218750,-0.091705322266,-0.033905029297,0.003723144531,-0.033309936523,0.087707519531
0.016418457031,-0.081436157227,0.009826660156,0.012817382813,-0.033081054688,0.081817626953
0.034118652344,-0.096878051758,0.036727905273,0.007553100586,-0.030578613281,0.080978393555
0.034103393555,-0.028762817383,0.058090209961,-0.003463745117,-0.018798828125,0.078811645508
0.026275634766,-0.006301879883,0.042312622070,-0.000534057617,-0.011291503906,0.074676513672
0.025665283203,0.037612915039,0.050109863281,-0.000427246094,-0.003570556641,0.070831298828
0.027709960938,0.050506591797,0.058502197266,0.000015258789,-0.000061035156,0.071792602539
0.028778076172,0.080398559570,0.061599731445,0.002319335938,0.008605957031,0.073806762695
0.026458740234,0.095489501953,0.055801391602,0.005081176758,0.012756347656,0.072998046875
0.024139404297,0.115951538086,0.041305541992,0.009323120117,0.018508911133,0.065109252930
0.012908935547,0.150039672852,0.029830932617,0.013473510742,0.019287109375,0.060958862305
0.006271362305,0.174682617188,0.018524169922,0.019241333008,0.020584106445,0.056365966797
-0.010299682617,0.222534179688,0.012390136719,0.029968261719,0.018554687500,0.046188354492
-0.016235351563,0.257431030273,0.005737304688,0.029373168945,0.017257690430,0.042739868164
-0.018646240234,0.337524414063,-0.006027221680,0.016555786133,0.012924194336,0.035949707031
-0.012908935547,0.383224487305,-0.019348144531,0.011627197266,0.011215209961,0.032867431641
0.004760742188,0.494369506836,-0.031250000000,0.004806518555,0.005599975586,0.016723632813
0.000900268555,0.484176635742,-0.006210327148,0.004760742188,-0.001556396484,-0.003234863281
0.012115478516,0.412612915039,-0.015029907227,0.003356933594,0.001632690430,-0.029693603516
0.006591796875,0.376724243164,-0.016967773438,-0.001449584961,-0.000015258789,-0.035964965820
0.018447875977,0.286392211914,0.003784179688,-0.011001586914,-0.006500244141,-0.049545288086
0.024780273438,0.247772216797,0.014694213867,-0.011047363281,-0.007812500000,-0.054031372070
0.025650024414,0.224594116211,0.019546508789,-0.009979248047,-0.007095336914,-0.060699462891
0.036071777344,0.181304931641,0.042007446289,-0.012435913086,-0.005920410156,-0.062667846680
0.037231445313,0.151702880859,0.044479370117,-0.006423950195,-0.002059936523,-0.069824218750
0.039489746094,0.102508544922,0.033187866211,-0.001007080078,0.000167846680,-0.073837280273
0.035491943359,0.085418701172,0.025085449219,0.005004882813,0.002212524414,-0.077880859375
0.029251098633,0.050201416016,0.004257202148,0.010879516602,0.006378173828,-0.078903198242
0.021789550781,0.022583007813,-0.005386352539,0.009567260742,0.005401611328,-0.077468872070
0.023803710938,-0.020324707031,-0.019958496094,0.006805419922,0.008819580078,-0.074554443359
0.028411865234,-0.039077758789,-0.060073852539,0.010040283203,0.014831542969,-0.073348999023
0.047531127930,-0.039337158203,-0.045318603516,0.011215209961,0.019287109375,-0.066864013672
0.027709960938,-0.047286987305,-0.056228637695,0.009674072266,0.026931762695,-0.074630737305
0.043411254883,-0.060592651367,-0.057174682617,0.008193969727,0.022476196289,-0.074798583984
0.043014526367,-0.077117919922,-0.047088623047,0.009811401367,0.016998291016,-0.074874877930
0.040908813477,-0.107330322266,-0.045684814453,0.014099121094,0.011062622070,-0.052291870117
0.032669067383,-0.099822998047,-0.054107666016,0.014556884766,0.017013549805,-0.050949096680
0.037216186523,-0.164825439453,-0.101867675781,0.015502929688,0.021957397461,-0.063949584961
0.037719726563,-0.178176879883,-0.100479125977,0.008789062500,0.013504028320,-0.054092407227
0.042953491211,-0.188842773438,-0.109252929688,-0.002517700195,0.004943847656,-0.036163330078
0.046386718750,-0.194122314453,-0.116836547852,-0.003814697266,0.002868652344,-0.030960083008
0.041320800781,-0.196914672852,-0.120666503906,0.004577636719,-0.003372192383,-0.020172119141
0.034561157227,-0.221450805664,-0.142822265625,0.002944946289,-0.005325317383,-0.013168334961
0.032714843750,-0.227401733398,-0.155075073242,-0.002929687500,-0.010162353516,0.002532958984
0.030807495117,-0.225021362305,-0.158691406250,-0.005416870117,-0.013580322266,0.011459350586
0.033859252930,-0.225509643555,-0.146789550781,-0.003265380859,-0.024002075195,0.027221679688
0.041610717773,-0.206970214844,-0.130477905273,-0.004089355469,-0.027664184570,0.034240722656
0.040557861328,-0.178665161133,-0.112152099609,0.001907348633,-0.035247802734,0.042404174805
0.043777465820,-0.153091430664,-0.091445922852,-0.000167846680,-0.038391113281,0.046249389648
0.037002563477,-0.128219604492,-0.061752319336,0.002822875977,-0.042587280273,0.054153442383
0.040588378906,-0.114883422852,-0.049209594727,0.001174926758,-0.043136596680,0.058074951172
0.037841796875,-0.088897705078,-0.036575317383,0.007125854492,-0.044754028320,0.064788818359
0.017684936523,-0.073852539063,-0.036911010742,0.013519287109,-0.044448852539,0.065963745117
0.005981445313,-0.063262939453,-0.032180786133,0.013107299805,-0.046234130859,0.070831298828
0.015747070313,-0.032318115234,-0.002883911133,0.003448486328,-0.045700073242,0.074523925781
0.010681152344,-0.018417358398,0.008331298828,0.003723144531,-0.044555664063,0.076705932617
-0.004623413086,0.013031005859,0.010009765625,0.014328002930,-0.036499023438,0.073242187500
-0.008087158203,0.034835815430,0.016555786133,0.017440795898,-0.032501220703,0.071594238281
0.004852294922,0.065078735352,0.044006347656,0.011810302734,-0.035736083984,0.076080322266
-0.007003784180,0.072433471680,0.077850341797,0.012359619141,-0.043685913086,0.080673217773
0.015899658203,0.099563598633,0.116058349609,0.023864746094,-0.049026489258,0.065795898438
0.027694702148,0.106857299805,0.136993408203,0.031555175781,-0.049163818359,0.057006835938
0.040466308594,0.098175048828,0.165542602539,0.040405273438,-0.040771484375,0.043777465820
0.046478271484,0.124191284180,0.162536621094,0.041793823242,-0.035964965820,0.041641235352
0.023986816406,0.159240722656,0.136047363281,0.045303344727,-0.025756835938,0.035705566406
0.014953613281,0.162536621094,0.116668701172,0.045547485352,-0.024002075195,0.028930664063
0.007232666016,0.152984619141,0.109634399414,0.044586181641,-0.026779174805,0.019851684570
0.006637573242,0.147003173828,0.128982543945,0.045135498047,-0.027679443359,0.014648437500
0.020874023438,0.147293090820,0.152969360352,0.039520263672,-0.028717041016,0.009567260742
0.039306640625,0.162002563477,0.200271606445,0.019119262695,-0.025726318359,0.004257202148
0.055816650391,0.160018920898,0.199096679688,0.017303466797,-0.021560668945,0.004669189453
0.073272705078,0.139602661133,0.198989868164,0.017593383789,-0.014846801758,0.001754760742

0.115112304688,0.153213500977,0.095733642578,0.041397094727,-0.012725830078,0.023254394531
0.132873535156,0.199920654297,0.092620849609,0.041671752930,-0.013763427734,0.021118164063
0.162582397461,0.219268798828,0.070388793945,0.047149658203,-0.009796142578,0.002243041992
0.175567626953,0.224624633789,0.070404052734,0.043029785156,-0.008316040039,-0.005859375000
0.199905395508,0.257781982422,0.083541870117,0.017608642578,0.001983642578,-0.017349243164
0.264343261719,0.289718627930,0.095642089844,0.004165649414,0.012573242188,-0.023284912109
0.297195434570,0.333892822266,0.119338989258,-0.007629394531,0.039779663086,-0.046768188477
0.233398437500,0.342041015625,0.113357543945,-0.018280029297,0.054336547852,-0.061981201172
0.150085449219,0.316619873047,0.111389160156,-0.038925170898,0.063034057617,-0.074401855469
-0.014984130859,0.261184692383,0.114700317383,-0.086166381836,0.071533203125,-0.095550537109
-0.084106445313,0.228805541992,0.108108520508,-0.100357055664,0.074676513672,-0.103698730469
-0.190292358398,0.088699340820,0.075195312500,-0.105712890625,0.067352294922,-0.119827270508
-0.184509277344,0.041488647461,0.064956665039,-0.113082885742,0.056198120117,-0.119842529297
-0.136932373047,0.011322021484,0.074493408203,-0.125732421875,0.019653320313,-0.112854003906
-0.139328002930,-0.056091308594,0.082611083984,-0.113525390625,0.004379272461,-0.112014770508
-0.117813110352,-0.190307617188,0.078918457031,-0.091186523438,-0.010864257813,-0.098205566406
-0.099868774414,-0.238693237305,0.073348999023,-0.075714111328,-0.017486572266,-0.090301513672
-0.075454711914,-0.296051025391,0.063751220703,-0.026870727539,-0.029953002930,-0.074981689453
-0.075180053711,-0.295608520508,0.046035766602,-0.003784179688,-0.032958984375,-0.065200805664
-0.047302246094,-0.264801025391,0.074050903320,0.013900756836,-0.036651611328,-0.025177001953
-0.031402587891,-0.251098632813,0.101959228516,0.013763427734,-0.035293579102,-0.011169433594
-0.010086059570,-0.280197143555,0.147598266602,-0.005279541016,-0.030166625977,0.037307739258
0.032684326172,-0.235519409180,0.170715332031,-0.012542724609,-0.021652221680,0.057495117188
0.034774780273,-0.281753540039,0.124572753906,0.035873413086,0.002502441406,0.007278442383
0.025344848633,-0.299438476563,0.104080200195,0.039672851563,0.004867553711,0.019821166992
0.009323120117,-0.304275512695,0.035842895508,0.031570434570,0.007415771484,0.047744750977
0.001464843750,-0.283401489258,0.038177490234,0.023818969727,0.004379272461,0.065460205078
0.007797241211,-0.247497558594,0.041687011719,0.020675659180,0.004379272461,0.100051879883
-0.001342773438,-0.142227172852,0.053375244141,0.023590087891,0.006378173828,0.115051269531
-0.016494750977,-0.083847045898,0.053680419922,0.029602050781,0.008758544922,0.125656127930
-0.061996459961,-0.000610351563,0.049636840820,0.060089111328,0.007263183594,0.135726928711
-0.084793090820,0.041351318359,0.064590454102,0.076538085938,0.003189086914,0.137420654297
-0.113143920898,0.094619750977,0.117904663086,0.106246948242,-0.008209228516,0.121749877930
-0.111007690430,0.120574951172,0.128936767578,0.111831665039,-0.008010864258,0.117187500000
-0.037872314453,0.207412719727,0.136199951172,0.094024658203,-0.007095336914,0.111083984375
-0.002517700195,0.249084472656,0.118972778320,0.072616577148,-0.004608154297,0.108642578125
0.109252929688,0.412445068359,0.054122924805,0.016128540039,0.002578735352,0.104385375977
0.131912231445,0.482635498047,-0.007415771484,-0.002456665039,0.007598876953,0.092453002930
0.153503417969,0.499938964844,-0.050476074219,-0.011398315430,0.002334594727,0.038925170898
0.154373168945,0.453399658203,-0.024703979492,-0.014816284180,-0.001510620117,0.010925292969
0.143692016602,0.400955200195,0.002838134766,-0.020812988281,0.005233764648,-0.029434204102
0.115829467773,0.365036010742,0.028060913086,-0.039566040039,0.013046264648,-0.045486450195
0.083511352539,0.332183837891,0.033721923828,-0.046875000000,0.020126342773,-0.061538696289
0.029983520508,0.279434204102,0.053527832031,-0.062026977539,0.030426025391,-0.086624145508
0.001068115234,0.253051757813,0.068572998047,-0.071701049805,0.033309936523,-0.096618652344
-0.069885253906,0.140991210938,0.070770263672,-0.090744018555,0.037414550781,-0.109191894531
-0.087051391602,0.105422973633,0.063537597656,-0.102661132813,0.035293579102,-0.109512329102
-0.073913574219,0.034332275391,0.046081542969,-0.123001098633,0.021713256836,-0.104095458984
-0.077178955078,-0.018005371094,0.026092529297,-0.118316650391,0.013229370117,-0.104370117188
-0.044281005859,-0.114562988281,0.014373779297,-0.100326538086,-0.006973266602,-0.096832275391
-0.022598266602,-0.128265380859,0.018524169922,-0.088485717773,-0.015274047852,-0.089126586914
-0.000991821289,-0.197280883789,0.019134521484,-0.043457031250,-0.025314331055,-0.083572387695
0.000747680664,-0.251846313477,0.013748168945,-0.021301269531,-0.026260375977,-0.080825805664
0.006408691406,-0.296798706055,-0.014892578125,0.009963989258,-0.026275634766,-0.060745239258
0.008850097656,-0.254745483398,-0.014648437500,0.023895263672,-0.029220581055,-0.046066284180
0.036499023438,-0.173294067383,0.018951416016,0.036773681641,-0.032302856445,-0.031372070313
0.041442871094,-0.181716918945,0.038009643555,0.032302856445,-0.029998779297,-0.028686523438
0.047622680664,-0.215637207031,0.043136596680,0.017745971680,-0.018035888672,-0.015670776367
0.038192749023,-0.229644775391,0.034469604492,0.017028808594,-0.013336181641,-0.006729125977
0.031356811523,-0.239593505859,0.025344848633,0.009597778320,-0.007110595703,0.013336181641
0.028564453125,-0.238815307617,0.022186279297,0.005584716797,-0.004669189453,0.024353027344
0.025131225586,-0.232360839844,0.015380859375,-0.002899169922,-0.001190185547,0.048614501953
0.017318725586,-0.218154907227,0.010894775391,-0.007202148438,0.000717163086,0.061187744141
0.012847900391,-0.192092895508,0.003067016602,-0.011810302734,0.006271362305,0.082260131836
0.001953125000,-0.148010253906,-0.009567260742,-0.008361816406,0.007827758789,0.088699340820
-0.001983642578,-0.131835937500,-0.025817871094,-0.004531860352,0.008132934570,0.098739624023
-0.013153076172,-0.100051879883,-0.016448974609,0.003890991211,0.002578735352,0.101745605469
-0.012649536133,-0.072891235352,-0.008255004883,0.007568359375,0.001678466797,0.105728149414
-0.013168334961,-0.016632080078,0.008819580078,0.023941040039,-0.001129150391,0.108673095703
-0.012512207031,0.011154174805,0.017089843750,0.032241821289,-0.003295898438,0.107666015625
-0.015151977539,0.040359497070,0.036132812500,0.049087524414,-0.006057739258,0.101562500000
-0.016647338867,0.049713134766,0.047988891602,0.056884765625,-0.007888793945,0.098037719727
-0.015960693359,0.072189331055,0.064300537109,0.068786621094,-0.010620117188,0.090225219727
-0.020370483398,0.092300415039,0.068954467773,0.073425292969,-0.012207031250,0.085876464844
-0.031219482422,0.102844238281,0.063156127930,0.084884643555,-0.014694213867,0.074279785156
-0.040206909180,0.102035522461,0.062622070313,0.086257934570,-0.015884399414,0.069839477539
-0.039123535156,0.137710571289,0.064392089844,0.071319580078,-0.021453857422,0.072998046875
-0.004913330078,0.203445434570,0.075973510742,0.047576904297,-0.027023315430,0.079483032227
0.031600952148,0.267120361328,0.057113647461,-0.000915527344,-0.025085449219,0.077285766602
0.065475463867,0.324890136719,0.028472900391,-0.017288208008,-0.020095825195,0.069763183594
0.066680908203,0.336074829102,0.019958496094,-0.028869628906,-0.016021728516,0.045104980469
0.062423706055,0.307464599609,0.046600341797,-0.048065185547,-0.013946533203,0.029724121094
0.058059692383,0.285369873047,0.046936035156,-0.054412841797,-0.012100219727,0.015747070313
0.082351684570,0.205078125000,0.031692504883,-0.023422241211,-0.011550903320,-0.008468627930
0.096755981445,0.184204101563,0.062881469727,-0.004501342773,-0.013626098633,-0.013351440430
0.000885009766,0.089187622070,0.050201416016,0.032211303711,-0.014083862305,-0.008773803711
0.041610717773,0.129791259766,0.079818725586,0.030456542969,-0.016448974609,0.007904052734
0.059646606445,0.194458007813,0.064849853516,0.035476684570,-0.010101318359,0.022903442383
0.067245483398,0.214263916016,0.052246093750,0.033248901367,-0.007202148438,0.018035888672
0.074340820313,0.181243896484,0.052200317383,0.021347045898,-0.007247924805,-0.000198364258
0.074188232422,0.162979125977,0.060577392578,0.008026123047,-0.008621215820,-0.004745483398
0.057647705078,0.106155395508,0.074157714844,-0.007217407227,-0.008316040039,-0.010208129883
0.056411743164,0.061019897461,0.089614868164,-0.005264282227,-0.005111694336,-0.010559082031
0.048309326172,0.070449829102,0.065231323242,-0.003845214844,0.003860473633,0.000289916992
0.048583984375,0.079879760742,0.048004150391,-0.005538940430,0.002441406250,0.001342773438
0.048141479492,0.085968017578,0.040374755859,-0.007186889648,0.002548217773,0.004043579102
0.048156738281,0.087753295898,0.016174316406,-0.000488281250,0.006713867188,0.004241943359
0.055297851563,0.087844848633,0.010620117188,-0.003860473633,0.007553100586,0.005783081055
0.046142578125,0.101211547852,0.017913818359,-0.004714965820,0.004760742188,0.006805419922
0.049209594727,0.094345092773,0.000152587891,-0.000839233398,0.004913330078,0.005798339844
0.056625366211,0.099639892578,-0.006652832031,-0.001800537109,-0.000411987305,0.007202148438
0.056289672852,0.110900878906,0.005096435547,-0.004547119141,-0.004257202148,0.007293701172
0.052627563477,0.115524291992,0.022384643555,-0.003417968750,-0.008193969727,0.005111694336
0.054901123047,0.123611450195,0.024749755859,-0.001449584961,-0.008666992188,0.004074096680

0.031387329102,0.216140747070,0.104629516602,0.026550292969,-0.003021240234,0.020584106445
0.052124023438,0.269058227539,0.107086181641,0.023162841797,-0.002243041992,0.018814086914
0.098342895508,0.371810913086,0.103912353516,0.004333496094,0.001296997070,0.006546020508
0.112030029297,0.410079956055,0.106323242188,-0.007995605469,0.004882812500,-0.004333496094
0.110488891602,0.424667358398,0.102386474609,-0.023300170898,0.017028808594,-0.036819458008
0.089736938477,0.414871215820,0.116699218750,-0.029144287109,0.023696899414,-0.054443359375
0.065185546875,0.404113769531,0.134094238281,-0.034912109375,0.030624389648,-0.072113037109
-0.026672363281,0.336639404297,0.151306152344,-0.049072265625,0.045562744141,-0.106002807617
-0.075988769531,0.282272338867,0.139663696289,-0.054321289063,0.051986694336,-0.120788574219
-0.130050659180,0.167251586914,0.151229858398,-0.060623168945,0.054260253906,-0.140548706055
-0.140731811523,0.117828369141,0.140411376953,-0.062667846680,0.055297851563,-0.144302368164
-0.142425537109,0.031158447266,0.104110717773,-0.074584960938,0.052490234375,-0.138397216797
-0.129669189453,0.002197265625,0.092346191406,-0.082412719727,0.047576904297,-0.131286621094
-0.100326538086,0.006042480469,0.084320068359,-0.089645385742,0.037536621094,-0.117004394531
-0.093856811523,-0.011306762695,0.079177856445,-0.083602905273,0.035934448242,-0.114837646484
-0.075012207031,-0.088714599609,0.056381225586,-0.069061279297,0.038513183594,-0.110961914063
-0.060058593750,-0.110198974609,0.035308837891,-0.068130493164,0.039886474609,-0.103622436523
-0.035690307617,-0.096496582031,-0.005844116211,-0.059799194336,0.036773681641,-0.089019775391
-0.046310424805,-0.125869750977,-0.032028198242,-0.048339843750,0.034088134766,-0.087432861328
-0.076705932617,-0.231140136719,-0.120300292969,-0.037826538086,0.027709960938,-0.070983886719
-0.074401855469,-0.191146850586,-0.126251220703,-0.034927368164,0.019042968750,-0.058090209961
-0.035415649414,-0.098449707031,-0.073287963867,-0.000549316406,-0.000183105469,-0.061218261719
-0.040161132813,-0.083480834961,-0.048004150391,0.011703491211,-0.005996704102,-0.062973022461
-0.053771972656,-0.150985717773,-0.051696777344,0.009338378906,-0.007415771484,-0.065124511719
-0.068771362305,-0.181243896484,-0.048019409180,0.003570556641,-0.008697509766,-0.060836791992
-0.071014404297,-0.187118530273,-0.025192260742,-0.001480102539,-0.010742187500,-0.049072265625
-0.071670532227,-0.197952270508,-0.015319824219,-0.001907348633,-0.011215209961,-0.044296264648
-0.077545166016,-0.221405029297,-0.010086059570,-0.005310058594,-0.010025024414,-0.032516479492
-0.081970214844,-0.241287231445,0.005538940430,-0.008560180664,-0.009414672852,-0.023239135742
-0.083511352539,-0.240051269531,0.001052856445,-0.005996704102,-0.006942749023,-0.010910034180
-0.090927124023,-0.254241943359,0.003479003906,-0.004379272461,-0.006652832031,-0.005523681641
-0.087905883789,-0.261138916016,0.008392333984,-0.000991821289,-0.007156372070,0.006820678711
-0.084793090820,-0.271118164063,0.001312255859,0.001892089844,-0.006561279297,0.011657714844
-0.081436157227,-0.268997192383,-0.009307861328,0.010040283203,-0.009887695313,0.023727416992
-0.075897216797,-0.273284912109,-0.020904541016,0.014312744141,-0.013076782227,0.029891967773
-0.071716308594,-0.276687622070,-0.025512695313,0.017242431641,-0.020324707031,0.045822143555
-0.075408935547,-0.281448364258,-0.029830932617,0.021255493164,-0.023986816406,0.054962158203
-0.078094482422,-0.276000976563,-0.014938354492,0.021392822266,-0.028732299805,0.079849243164
-0.077377319336,-0.238250732422,0.008560180664,0.010360717773,-0.031890869141,0.094406127930
-0.079803466797,-0.203430175781,0.021209716797,0.005187988281,-0.031524658203,0.107925415039
-0.083297729492,-0.152679443359,0.032440185547,0.001190185547,-0.026443481445,0.126632690430
-0.089569091797,-0.136840820313,0.032257080078,0.000091552734,-0.023239135742,0.133529663086
-0.101776123047,-0.069442749023,0.037612915039,-0.002136230469,-0.017944335938,0.146102905273
-0.099304199219,-0.024902343750,0.049224853516,0.001815795898,-0.015274047852,0.148559570313
-0.086853027344,0.043807983398,0.067031860352,0.026550292969,-0.007751464844,0.142410278320
-0.083160400391,0.056503295898,0.071792602539,0.044708251953,-0.004699707031,0.135589599609
-0.076980590820,0.077484130859,0.109527587891,0.073440551758,-0.002777099609,0.124603271484
-0.086563110352,0.075942993164,0.123596191406,0.084579467773,-0.000549316406,0.121063232422
-0.113952636719,0.098602294922,0.148696899414,0.096786499023,0.004882812500,0.121322631836
-0.116104125977,0.127944946289,0.141174316406,0.090225219727,0.007644653320,0.125579833984
-0.104690551758,0.252990722656,0.087265014648,0.034423828125,0.014938354492,0.134826660156
-0.088317871094,0.320755004883,0.001525878906,0.002258300781,0.019317626953,0.136138916016
-0.074600219727,0.409545898437,-0.056579589844,-0.032333374023,0.020782470703,0.118667602539
-0.028320312500,0.476989746094,-0.132766723633,-0.052185058594,0.021026611328,0.090103149414
-0.026031494141,0.422546386719,-0.122650146484,-0.027389526367,0.015914916992,0.057815551758
-0.040893554688,0.266494750977,-0.064392089844,0.022018432617,0.003814697266,0.015228271484
-0.047470092773,0.241836547852,-0.028060913086,0.025146484375,-0.000381469727,0.011047363281
-0.048004150391,0.271713256836,0.003402709961,0.016632080078,-0.000183105469,0.012542724609
-0.041122436523,0.325134277344,0.001525878906,0.011047363281,0.001998901367,0.012954711914
-0.026229858398,0.386047363281,-0.030242919922,0.011596679688,0.003890991211,-0.002655029297
-0.012985229492,0.399566650391,-0.029144287109,0.010452270508,0.001937866211,-0.013824462891
0.010543823242,0.410720825195,-0.026870727539,0.002426147461,0.000015258789,-0.038482666016
0.018493652344,0.407150268555,-0.019088745117,-0.005950927734,-0.000259399414,-0.050613403320
0.006927490234,0.376663208008,0.003707885742,-0.030090332031,0.003509521484,-0.073226928711
-0.021453857422,0.312072753906,-0.010879516602,-0.032333374023,0.006942749023,-0.087020874023
-0.043441772461,0.191864013672,-0.003005981445,-0.033309936523,0.003005981445,-0.103485107422
-0.046539306641,0.168930053711,0.006958007813,-0.031509399414,-0.000640869141,-0.105667114258
-0.040145874023,0.156097412109,0.038528442383,-0.034423828125,-0.003021240234,-0.107604980469
-0.041046142578,0.146621704102,0.050170898438,-0.039810180664,-0.001022338867,-0.109191894531
-0.036026000977,0.095489501953,0.057846069336,-0.054061889648,0.003479003906,-0.110595703125
-0.037780761719,0.085891723633,0.055969238281,-0.062179565430,0.003875732422,-0.108001708984
-0.040542602539,0.068557739258,0.048202514648,-0.067550659180,0.002822875977,-0.106994628906
-0.046325683594,-0.011199951172,0.016189575195,-0.067520141602,0.000442504883,-0.106338500977
-0.039489746094,-0.030334472656,0.015167236328,-0.069625854492,-0.004135131836,-0.093994140625
-0.012680053711,-0.037536621094,0.039611816406,-0.065399169922,-0.010971069336,-0.095764160156
-0.008544921875,-0.070755004883,0.036254882813,-0.056869506836,-0.009323120117,-0.092742919922
0.004455566406,-0.117858886719,0.029296875000,-0.050827026367,-0.004516601563,-0.087722778320
0.013610839844,-0.124725341797,0.026885986328,-0.044357299805,-0.002761840820,-0.082962036133
0.018234252930,-0.130065917969,0.015319824219,-0.022918701172,0.001449584961,-0.076843261719
0.012985229492,-0.138275146484,0.000228881836,-0.012649536133,0.003799438477,-0.074157714844
0.000137329102,-0.163253784180,-0.023986816406,0.004852294922,0.006011962891,-0.068664550781
-0.002716064453,-0.166549682617,-0.022705078125,0.007736206055,0.005691528320,-0.063552856445
0.000411987305,-0.149993896484,-0.018981933594,0.007904052734,0.006042480469,-0.052703857422
-0.001724243164,-0.150421142578,-0.013244628906,0.007492065430,0.006149291992,-0.048934936523
-0.008331298828,-0.162353515625,-0.023010253906,0.002746582031,0.008224487305,-0.041168212891
-0.006851196289,-0.151748657227,-0.020401000977,-0.000473022461,0.008285522461,-0.036788940430
-0.011169433594,-0.162170410156,-0.026580810547,-0.001617431641,0.006393432617,-0.031799316406
-0.013610839844,-0.170715332031,-0.025619506836,-0.002044677734,0.004913330078,-0.029479980469
-0.010803222656,-0.167037963867,-0.018814086914,0.000381469727,0.001983642578,-0.024337768555
-0.011779785156,-0.173873901367,-0.018646240234,0.003540039063,0.001159667969,-0.023468017578
-0.021209716797,-0.195495605469,-0.030487060547,0.006546020508,0.000381469727,-0.019287109375
-0.022109985352,-0.204528808594,-0.038238525391,0.006362915039,-0.000183105469,-0.015472412109
-0.021240234375,-0.198425292969,-0.040374755859,0.008514404297,-0.002609252930,-0.007156372070
-0.020294189453,-0.197036743164,-0.044357299805,0.009689331055,-0.003723144531,-0.003890991211
-0.018569946289,-0.174301147461,-0.054733276367,0.011688232422,-0.006179809570,0.001586914063
-0.018463134766,-0.174606323242,-0.060028076172,0.015014648438,-0.007934570313,0.002563476563
-0.019775390625,-0.170623779297,-0.063690185547,0.017044067383,-0.012329101563,0.005889892578
-0.020767211914,-0.172668457031,-0.061737060547,0.016891479492,-0.014678955078,0.007553100586
-0.016082763672,-0.193496704102,-0.059585571289,0.012573242188,-0.018707275391,0.013641357422
-0.015945434570,-0.207229614258,-0.057006835938,0.008834838867,-0.020858764648,0.018676757813
-0.015548706055,-0.230300903320,-0.054367065430,0.004913330078,-0.025817871094,0.032592773438
-0.023056030273,-0.232086181641,-0.048767089844,0.001312255859,-0.028442382813,0.041976928711
-0.021209716797,-0.227294921875,-0.022232055664,-0.010910034180,-0.030380249023,0.062591552734
-0.021301269531,-0.218124389648,-0.017517089844,-0.015808105469,-0.029693603516,0.073410034180

0.063476562500,0.215820312500,0.023681640625,-0.011077880859,-0.009399414063,-0.033828735352
0.069885253906,0.218627929688,0.039199829102,-0.018096923828,-0.009323120117,-0.037475585938
0.082901000977,0.231079101563,0.069229125977,-0.023925781250,-0.004608154297,-0.050537109375
0.098876953125,0.254272460938,0.101104736328,-0.026855468750,-0.002029418945,-0.059631347656
0.092437744141,0.310409545898,0.160522460938,-0.048522949219,0.011337280273,-0.078781127930
0.050231933594,0.296798706055,0.160430908203,-0.057769775391,0.023788452148,-0.092391967773
-0.057128906250,0.180465698242,0.107772827148,-0.065521240234,0.039978027344,-0.120605468750
-0.085205078125,0.122116088867,0.110290527344,-0.069854736328,0.038772583008,-0.128723144531
-0.105377197266,0.022903442383,0.112838745117,-0.090011596680,0.030456542969,-0.129165649414
-0.105255126953,0.003890991211,0.114059448242,-0.100433349609,0.024932861328,-0.124328613281
-0.097961425781,-0.017669677734,0.121917724609,-0.099060058594,0.013839721680,-0.118896484375
-0.084930419922,-0.080551147461,0.120590209961,-0.087554931641,0.010848999023,-0.116958618164
-0.073806762695,-0.117919921875,0.113540649414,-0.070983886719,0.009750366211,-0.107757568359
-0.054077148438,-0.182907104492,0.078109741211,-0.063186645508,0.009826660156,-0.100906372070
-0.041717529297,-0.200531005859,0.062133789063,-0.040359497070,0.008255004883,-0.086013793945
-0.029266357422,-0.180633544922,0.033218383789,-0.023498535156,0.007858276367,-0.081054687500
-0.025650024414,-0.146270751953,0.024017333984,-0.011108398438,0.006973266602,-0.072357177734
-0.037139892578,-0.140151977539,0.013931274414,-0.000808715820,0.004577636719,-0.070693969727
-0.038925170898,-0.158203125000,0.021423339844,0.000122070313,0.003890991211,-0.064895629883
-0.045257568359,-0.173721313477,0.028121948242,0.002899169922,0.003936767578,-0.062133789063
-0.058456420898,-0.185989379883,0.014556884766,0.004394531250,0.005233764648,-0.060333251953
-0.062103271484,-0.219741821289,0.004531860352,0.004684448242,0.003204345703,-0.054351806641
-0.055252075195,-0.216506958008,0.011627197266,0.004684448242,0.001068115234,-0.048553466797
-0.044326782227,-0.208618164063,0.020050048828,0.004898071289,-0.000610351563,-0.038803100586
-0.044525146484,-0.224075317383,0.016799926758,0.004455566406,0.000198364258,-0.034729003906
-0.045227050781,-0.239059448242,0.006362915039,-0.001739501953,0.003189086914,-0.021820068359
-0.038391113281,-0.210266113281,0.012802124023,-0.004058837891,0.003967285156,-0.014373779297
-0.042770385742,-0.194946289063,-0.005767822266,0.001296997070,0.006988525391,-0.009033203125
-0.049713134766,-0.207244873047,-0.023757934570,0.004119873047,0.007232666016,-0.007812500000
-0.047149658203,-0.195999145508,-0.033828735352,0.012115478516,0.001892089844,-0.003295898438
-0.044372558594,-0.180618286133,-0.023925781250,0.015991210938,-0.001647949219,-0.001693725586
-0.031265258789,-0.221862792969,0.011718750000,0.021469116211,-0.005691528320,-0.001159667969
-0.033905029297,-0.237915039063,0.031860351563,0.019363403320,-0.006210327148,0.004287719727
-0.030502319336,-0.293090820313,0.041702270508,0.017959594727,-0.002944946289,0.018157958984
-0.033737182617,-0.299789428711,0.034698486328,0.016281127930,-0.000534057617,0.028488159180
-0.037033081055,-0.262268066406,0.014739990234,0.012252807617,0.002197265625,0.049301147461
-0.034652709961,-0.246185302734,0.009262084961,0.012374877930,0.001510620117,0.057327270508
-0.031448364258,-0.252273559570,-0.002975463867,0.014404296875,-0.001510620117,0.068634033203
-0.034240722656,-0.268722534180,-0.009399414063,0.016479492188,-0.003952026367,0.075698852539
-0.042877197266,-0.281341552734,-0.007431030273,0.019302368164,-0.007476806641,0.097503662109
-0.055358886719,-0.228912353516,0.021087646484,0.013931274414,-0.006866455078,0.111968994141
-0.058456420898,-0.180252075195,0.035873413086,0.009323120117,-0.004043579102,0.132064819336
-0.062042236328,-0.096435546875,0.039550781250,0.005142211914,0.005447387695,0.137741088867
-0.060302734375,-0.064407348633,0.032974243164,0.005416870117,0.009979248047,0.139633178711
-0.064971923828,-0.016403198242,0.020355224609,0.010299682617,0.016586303711,0.137985229492
-0.067642211914,0.014068603516,0.010498046875,0.011291503906,0.020172119141,0.137802124023
-0.072250366211,0.083450317383,-0.018722534180,0.015625000000,0.028961181641,0.133926391602
-0.070312500000,0.107131958008,-0.024368286133,0.023010253906,0.032043457031,0.128463745117
-0.066635131836,0.156219482422,-0.038146972656,0.031692504883,0.035614013672,0.117584228516
-0.067810058594,0.187545776367,-0.056320190430,0.030838012695,0.037460327148,0.111465454102
-0.067382812500,0.217987060547,-0.109008789063,0.032623291016,0.036407470703,0.091567993164
-0.032501220703,0.309173583984,-0.121856689453,0.024108886719,0.030944824219,0.079162597656
-0.000793457031,0.359817504883,-0.138381958008,-0.010437011719,0.018951416016,0.051879882813
0.053192138672,0.489761352539,-0.192276000977,-0.033187866211,0.015182495117,0.034530639648
0.045532226563,0.483673095703,-0.199584960938,-0.041900634766,0.014602661133,0.010360717773
-0.010375976563,0.339294433594,-0.174484252930,-0.032241821289,0.014877319336,-0.040222167969
-0.032714843750,0.250854492188,-0.152954101563,-0.031066894531,0.014938354492,-0.055206298828
-0.047012329102,0.130599975586,-0.143859863281,-0.042175292969,0.010086059570,-0.061889648438
-0.030670166016,0.135009765625,-0.122482299805,-0.050231933594,0.002944946289,-0.058776855469
0.004470825195,0.151931762695,-0.072158813477,-0.061477661133,-0.009368896484,-0.058212280273
0.005950927734,0.172454833984,-0.052566528320,-0.063156127930,-0.013183593750,-0.061538696289
-0.007308959961,0.175354003906,-0.033462524414,-0.055068969727,-0.019668579102,-0.081420898438
-0.037902832031,0.131240844727,-0.061035156250,-0.044296264648,-0.021514892578,-0.094268798828
-0.073501586914,0.014831542969,-0.091827392578,-0.024261474609,-0.034378051758,-0.112304687500
-0.077560424805,-0.040954589844,-0.090164184570,-0.014175415039,-0.042785644531,-0.116378784180
-0.077758789063,-0.104934692383,-0.060836791992,-0.002075195313,-0.056457519531,-0.114471435547
-0.087097167969,-0.124359130859,-0.046325683594,0.002532958984,-0.060562133789,-0.112319946289
-0.086425781250,-0.172439575195,0.043228149414,0.012832641602,-0.064544677734,-0.113510131836
-0.085388183594,-0.285263061523,0.101959228516,0.021606445313,-0.058853149414,-0.116867065430
-0.032073974609,-0.499938964844,0.149322509766,0.014511108398,-0.027008056641,-0.087188720703
-0.000411987305,-0.499938964844,0.132385253906,0.001861572266,-0.012771606445,-0.055389404297
0.005798339844,-0.408782958984,0.041290283203,-0.015365600586,0.008071899414,0.003845214844
-0.004928588867,-0.328109741211,0.011001586914,-0.010833740234,0.009963989258,0.016891479492
-0.012390136719,-0.266265869141,-0.036148071289,0.002410888672,0.007400512695,0.026245117188
-0.013076782227,-0.254364013672,-0.049926757813,0.005950927734,0.003890991211,0.029724121094
-0.003799438477,-0.223526000977,-0.044418334961,0.008209228516,-0.001846313477,0.039886474609
0.001358032227,-0.205917358398,-0.033782958984,0.008956909180,-0.003433227539,0.045425415039
0.015090942383,-0.196853637695,0.010635375977,0.012008666992,-0.002853393555,0.055694580078
0.017745971680,-0.188613891602,0.023864746094,0.010726928711,0.001495361328,0.062927246094
0.017654418945,-0.173309326172,0.028411865234,0.010040283203,0.013061523438,0.077667236328
0.015640258789,-0.132736206055,0.036590576172,0.010375976563,0.018569946289,0.083389282227
0.014099121094,-0.108886718750,0.032577514648,0.009750366211,0.024490356445,0.092483520508
-0.001251220703,-0.045730590820,-0.007736206055,0.006591796875,0.035827636719,0.095932006836
-0.009796142578,-0.014511108398,-0.030029296875,0.008880615234,0.038970947266,0.096450805664
-0.016799926758,0.027328491211,-0.043502807617,0.019638061523,0.040069580078,0.091812133789
-0.020858764648,0.047256469727,-0.045364379883,0.022399902344,0.040298461914,0.089096069336
-0.018844604492,0.106948852539,-0.066818237305,0.022903442383,0.042663574219,0.081863403320
-0.019134521484,0.134445190430,-0.084884643555,0.022003173828,0.043457031250,0.076095581055
-0.020278930664,0.182723999023,-0.156494140625,0.016571044922,0.043258666992,0.062652587891
-0.018005371094,0.219787597656,-0.192214965820,0.010955810547,0.038452148438,0.056350708008
-0.002105712891,0.280548095703,-0.255950927734,-0.002700805664,0.021972656250,0.038391113281
0.005752563477,0.297393798828,-0.267211914063,-0.005798339844,0.012466430664,0.027648925781
0.027999877930,0.280090332031,-0.224563598633,0.001129150391,-0.006896972656,0.000228881836
0.035583496094,0.248489379883,-0.196594238281,0.003753662109,-0.012222290039,-0.011306762695
0.035858154297,0.188400268555,-0.171615600586,-0.000350952148,-0.015518188477,-0.024581909180
0.043579101563,0.175018310547,-0.159896850586,-0.003646850586,-0.016494750977,-0.027877807617
0.053344726563,0.168212890625,-0.118988037109,-0.011352539063,-0.018127441406,-0.033096313477
0.072143554688,0.153259277344,-0.131423950195,-0.017440795898,-0.016998291016,-0.035491943359
0.065505981445,0.166244506836,-0.091751098633,-0.029632568359,-0.020614624023,-0.042770385742
0.062835693359,0.177474975586,-0.092895507813,-0.030166625977,-0.020339965820,-0.050460815430
0.048202514648,0.165954589844,-0.103958129883,-0.017791748047,-0.025848388672,-0.071990966797
0.010177612305,0.099670410156,-0.120483398438,-0.011611938477,-0.029525756836,-0.081893920898
-0.005523681641,0.060028076172,-0.114501953125,-0.008316040039,-0.039596557617,-0.090805053711
-0.019973754883,0.007873535156,-0.087539672852,-0.008789062500,-0.043807983398,-0.091049194336

-0.022689819336,-0.218673706055,-0.089965820313,0.016723632813,-0.022125244141,-0.024200439453
-0.025619506836,-0.268432617188,-0.076797485352,0.021926879883,-0.028427124023,-0.021621704102
-0.014251708984,-0.338150024414,-0.017654418945,0.033050537109,-0.038772583008,-0.004684448242
-0.002807617188,-0.369049072266,0.023559570313,0.034835815430,-0.039398193359,0.008102416992
0.009933471680,-0.393173217773,0.080551147461,0.024169921875,-0.030395507813,0.048049926758
0.003631591797,-0.375793457031,0.099609375000,0.015228271484,-0.022293090820,0.072052001953
-0.032333374023,-0.275314331055,0.081985473633,-0.010437011719,-0.003311157227,0.118759155273
-0.051681518555,-0.235031127930,0.079116821289,-0.022155761719,0.005447387695,0.136810302734
-0.111938476563,-0.136428833008,0.063339233398,-0.034271240234,0.024765014648,0.165191650391
-0.140319824219,-0.066162109375,0.042022705078,-0.038604736328,0.035858154297,0.174545288086
-0.170410156250,0.041351318359,-0.030609130859,-0.029876708984,0.055664062500,0.175064086914
-0.179107666016,0.079757690430,-0.049530029297,-0.018890380859,0.060119628906,0.168823242188
-0.176742553711,0.104629516602,-0.077835083008,0.004241943359,0.060974121094,0.152084350586
-0.164276123047,0.189498901367,-0.084396362305,0.017639160156,0.057556152344,0.142395019531
-0.155929565430,0.246719360352,-0.064880371094,0.035049438477,0.047821044922,0.110885620117
-0.097030639648,0.363693237305,-0.081436157227,0.050003051758,0.044631958008,0.091278076172
-0.052627563477,0.444946289062,-0.136795043945,0.028503417969,0.041473388672,0.075302124023
-0.036865234375,0.499938964844,-0.364501953125,-0.024749755859,0.029678344727,0.038513183594
-0.055084228516,0.499938964844,-0.433258056641,-0.047439575195,0.015060424805,0.014816284180
-0.095016479492,0.408691406250,-0.309982299805,-0.033187866211,-0.022109985352,-0.040481567383
-0.094161987305,0.315795898438,-0.240432739258,-0.022216796875,-0.031036376953,-0.061691284180
-0.085983276367,0.262908935547,-0.167648315430,-0.031845092773,-0.040267944336,-0.077438354492
-0.082473754883,0.260406494141,-0.145233154297,-0.026077270508,-0.045288085938,-0.086349487305
-0.077667236328,0.223602294922,-0.110046386719,-0.001678466797,-0.054061889648,-0.111389160156
-0.081939697266,0.198608398438,-0.077926635742,0.014831542969,-0.057098388672,-0.124542236328
-0.082733154297,0.122528076172,-0.015426635742,0.041061401367,-0.054656982422,-0.149902343750
-0.092193603516,0.056304931641,-0.025833129883,0.044265747070,-0.048278808594,-0.157440185547
-0.093215942383,-0.027023315430,-0.011383056641,0.033828735352,-0.041671752930,-0.156021118164
-0.081344604492,-0.053955078125,0.011642456055,0.027786254883,-0.038864135742,-0.151840209961
-0.085845947266,-0.131698608398,0.009628295898,0.018981933594,-0.029525756836,-0.140029907227
-0.070434570313,-0.168914794922,-0.011657714844,0.012222290039,-0.025512695313,-0.131240844727
-0.059387207031,-0.250106811523,-0.002258300781,0.021530151367,-0.018829345703,-0.121246337891
-0.063247680664,-0.294006347656,-0.017395019531,0.027511596680,-0.012084960938,-0.110107421875
-0.044586181641,-0.370468139648,0.016189575195,0.025802612305,-0.005645751953,-0.078613281250
-0.034942626953,-0.392578125000,0.035263061523,0.015228271484,-0.000518798828,-0.057037353516
-0.018737792969,-0.357620239258,0.025878906250,-0.013610839844,0.014511108398,-0.011596679688
-0.021270751953,-0.334899902344,0.008300781250,-0.019882202148,0.020324707031,0.003707885742
-0.031661987305,-0.319961547852,-0.035629272461,-0.019638061523,0.024826049805,0.022613525391
-0.038742065430,-0.324645996094,-0.047409057617,-0.014648437500,0.023498535156,0.029846191406
-0.046508789063,-0.355117797852,-0.063140869141,-0.004608154297,0.018234252930,0.045944213867
-0.050750732422,-0.356201171875,-0.073226928711,-0.003875732422,0.015151977539,0.058120727539
-0.057540893555,-0.303573608398,-0.074584960938,-0.008148193359,0.008193969727,0.086410522461
-0.061706542969,-0.266265869141,-0.065643310547,-0.010894775391,0.004806518555,0.099380493164
-0.070404052734,-0.195770263672,-0.038421630859,-0.010360717773,0.000137329102,0.119689941406
-0.077560424805,-0.180435180664,-0.023315429688,-0.006164550781,-0.000808715820,0.126907348633
-0.106369018555,-0.093017578125,0.005798339844,-0.005706787109,0.002075195313,0.144515991211
-0.115570068359,-0.035614013672,0.006866455078,-0.002746582031,0.006149291992,0.150177001953
-0.125976562500,0.037612915039,0.024490356445,0.023559570313,0.012619018555,0.148040771484
-0.137542724609,0.065765380859,0.030792236328,0.038055419922,0.014923095703,0.145309448242
-0.126770019531,0.181015014648,0.051147460938,0.042724609375,0.014419555664,0.142242431641
-0.100967407227,0.270492553711,0.042327880859,0.023574829102,0.015884399414,0.140792846680
-0.077514648438,0.359069824219,-0.073562622070,-0.008071899414,0.033401489258,0.116470336914
-0.057998657227,0.401580810547,-0.141098022461,0.001434326172,0.038055419922,0.092453002930
-0.048812866211,0.409866333008,-0.186782836914,0.017562866211,0.020843505859,0.050476074219
0.010223388672,0.499938964844,-0.213394165039,-0.003860473633,0.009384155273,0.035888671875
0.027328491211,0.499938964844,-0.226043701172,-0.022659301758,0.001144409180,0.016616821289
-0.010665893555,0.470458984375,-0.217514038086,-0.019332885742,-0.005538940430,-0.041488647461
-0.036514282227,0.378829956055,-0.202774047852,-0.009384155273,-0.009017944336,-0.067260742188
-0.045852661133,0.265411376953,-0.133026123047,-0.016357421875,-0.022445678711,-0.091110229492
-0.039520263672,0.229858398438,-0.098449707031,-0.016159057617,-0.027359008789,-0.097305297852
-0.033508300781,0.170013427734,-0.044906616211,-0.012802124023,-0.032318115234,-0.108032226563
-0.033767700195,0.125595092773,-0.019363403320,-0.019882202148,-0.033279418945,-0.109924316406
-0.023361206055,0.060058593750,0.007904052734,-0.036209106445,-0.034652709961,-0.106292724609
-0.023773193359,0.050216674805,0.014923095703,-0.038543701172,-0.036041259766,-0.104263305664
-0.027313232422,-0.029846191406,0.023086547852,-0.033233642578,-0.037948608398,-0.105957031250
-0.027557373047,-0.081573486328,0.023971557617,-0.032653808594,-0.038284301758,-0.104003906250
-0.027923583984,-0.173263549805,0.011169433594,-0.034133911133,-0.038391113281,-0.092330932617
-0.008224487305,-0.194549560547,0.027542114258,-0.035049438477,-0.041213989258,-0.085006713867
0.006530761719,-0.278030395508,0.073440551758,-0.006835937500,-0.040634155273,-0.076385498047
0.015945434570,-0.326156616211,0.087677001953,0.008285522461,-0.033447265625,-0.067291259766
0.039642333984,-0.405746459961,0.121566772461,0.022674560547,-0.018112182617,-0.037094116211
0.050430297852,-0.420425415039,0.123092651367,0.019409179688,-0.009140014648,-0.016555786133
0.054504394531,-0.371948242188,0.079940795898,0.002227783203,0.006347656250,0.028060913086
0.046493530273,-0.326644897461,0.051101684570,-0.006195068359,0.010757446289,0.046218872070
0.034088134766,-0.236953735352,0.010482788086,-0.013183593750,0.011398315430,0.070861816406
0.033752441406,-0.183212280273,0.001129150391,-0.014556884766,0.010070800781,0.079116821289
0.035797119141,-0.104843139648,-0.000579833984,-0.004089355469,0.007568359375,0.084197998047
0.039916992188,-0.082183837891,0.002548217773,0.004653930664,0.006912231445,0.083526611328
0.031845092773,-0.049835205078,0.016174316406,0.021896362305,0.007232666016,0.084320068359
0.024658203125,-0.037414550781,0.016082763672,0.029083251953,0.008590698242,0.086227416992
0.017272949219,-0.026321411133,0.018676757813,0.034210205078,0.013717651367,0.092529296875
-0.005096435547,0.022018432617,0.031906127930,0.045028686523,0.016967773438,0.095458984375
-0.018768310547,0.052444458008,0.033767700195,0.051620483398,0.020156860352,0.096923828125
-0.032852172852,0.116806030273,0.020156860352,0.069763183594,0.022247314453,0.091690063477
-0.028915405273,0.154571533203,0.007537841797,0.067230224609,0.018417358398,0.087921142578
0.014739990234,0.255981445313,-0.009399414063,0.025711059570,0.009933471680,0.085968017578
0.033523559570,0.303619384766,-0.030838012695,0.007980346680,0.010864257813,0.080886840820
0.074218750000,0.380340576172,-0.111022949219,-0.022445678711,0.010375976563,0.060470581055
0.089370727539,0.432357788086,-0.123641967773,-0.038681030273,0.007583618164,0.047592163086
0.094879150391,0.428329467773,-0.144943237305,-0.037429809570,0.005233764648,-0.001953125000
0.094360351563,0.413757324219,-0.133056640625,-0.036849975586,0.001403808594,-0.023086547852
0.080459594727,0.351638793945,-0.059326171875,-0.035064697266,-0.006317138672,-0.059112548828
0.047683715820,0.300506591797,-0.044311523438,-0.026031494141,-0.006820678711,-0.077331542969
0.027755737305,0.193328857422,-0.015365600586,-0.014114379883,-0.005874633789,-0.101165771484
0.014434814453,0.145080566406,0.003005981445,-0.016098022461,-0.005661010742,-0.106018066406
0.018814086914,0.109359741211,0.023132324219,-0.023376464844,-0.002471923828,-0.105804443359
0.013580322266,0.076828002930,0.013763427734,-0.026336669922,0.000183105469,-0.104614257813
0.010864257813,0.052658081055,0.004455566406,-0.038970947266,0.000228881836,-0.099624633789
0.002624511719,-0.011230468750,-0.002563476563,-0.042663574219,-0.000976562500,-0.096298217773
0.002166748047,-0.035644531250,-0.002227783203,-0.038314819336,-0.005950927734,-0.091003417969
0.010696411133,-0.049423217773,0.003738403320,-0.027481079102,-0.007644653320,-0.091735839844
0.014495849609,-0.089187622070,-0.003356933594,-0.018508911133,-0.010284423828,-0.087417602539
0.021392822266,-0.129043579102,-0.009017944336,-0.006973266602,-0.009246826172,-0.083694458008
0.021789550781,-0.177322387695,-0.008255004883,0.004852294922,-0.005996704102,-0.073913574219

0.083206176758,0.214874267578,0.019836425781,0.023818969727,-0.012588500977,0.014968872070
0.097290039063,0.229049682617,0.006942749023,0.018371582031,-0.012527465820,0.008621215820
0.109970092773,0.235931396484,0.014251708984,0.003524780273,-0.014617919922,-0.004119873047
0.114532470703,0.244674682617,0.004837036133,-0.006134033203,-0.014389038086,-0.010818481445
0.125762939453,0.292190551758,0.010116577148,-0.038543701172,-0.017059326172,-0.019500732422
0.150085449219,0.315429687500,0.013076782227,-0.058975219727,-0.017181396484,-0.019210815430
0.178466796875,0.484283447266,0.067199707031,-0.085449218750,-0.010162353516,-0.056121826172
0.090545654297,0.435989379883,0.017028808594,-0.066757202148,0.001296997070,-0.097030639648
0.012435913086,0.390853881836,0.023269653320,-0.068176269531,-0.007583618164,-0.145904541016
-0.132659912109,0.263488769531,0.087142944336,-0.066390991211,-0.017501831055,-0.163055419922
-0.199462890625,0.169265747070,0.087478637695,-0.065917968750,-0.025588989258,-0.177932739258
-0.221694946289,-0.055572509766,0.187927246094,-0.071777343750,-0.024505615234,-0.171646118164
-0.180038452148,-0.133865356445,0.192565917969,-0.078109741211,-0.018554687500,-0.130310058594
-0.068496704102,-0.182952880859,0.202758789063,-0.085556030273,-0.006683349609,-0.104492187500
-0.029769897461,-0.203598022461,0.197937011719,-0.078964233398,0.001647949219,-0.084030151367
0.025283813477,-0.264556884766,0.169357299805,-0.057159423828,0.013839721680,-0.047088623047
0.044815063477,-0.253112792969,0.142730712891,-0.044174194336,0.017257690430,-0.028808593750
0.054260253906,-0.209976196289,0.067718505859,-0.004074096680,0.020645141602,-0.003311157227
0.055099487305,-0.193954467773,0.058074951172,0.016281127930,0.017044067383,0.008926391602
0.050903320313,-0.204925537109,0.099700927734,0.041427612305,0.011215209961,0.030624389648
0.038406372070,-0.183502197266,0.106002807617,0.045227050781,0.013351440430,0.046249389648
0.004028320313,-0.083099365234,0.082199096680,0.046600341797,0.018753051758,0.077713012695
0.010391235352,-0.016754150391,0.072158813477,0.045623779297,0.019271850586,0.087097167969
0.016799926758,0.041625976563,0.052825927734,0.048934936523,0.019378662109,0.088531494141
0.023132324219,0.108184814453,0.020141601563,0.054748535156,0.018508911133,0.081787109375
0.031829833984,0.112045288086,0.014526367188,0.060943603516,0.016067504883,0.073959350586
0.066497802734,0.120071411133,0.021469116211,0.065811157227,0.007247924805,0.062744140625
0.074951171875,0.129028320313,0.022064208984,0.065414428711,0.004409790039,0.058364868164
0.098754882813,0.153762817383,0.009796142578,0.066299438477,0.004074096680,0.048660278320
0.105514526367,0.169448852539,-0.004699707031,0.068161010742,0.004257202148,0.042907714844
0.136444091797,0.194015502930,-0.043563842773,0.056350708008,-0.001510620117,0.032043457031
0.159957885742,0.234298706055,-0.040649414063,0.041671752930,-0.008148193359,0.028900146484
0.186904907227,0.264221191406,-0.066848754883,0.012939453125,-0.014419555664,0.015930175781
0.214706420898,0.313674926758,-0.078338623047,-0.004669189453,-0.018203735352,0.007095336914
0.218475341797,0.354156494141,-0.063354492188,-0.027709960938,-0.020706176758,-0.014816284180
0.179809570313,0.395767211914,-0.077606201172,-0.035598754883,-0.013732910156,-0.038803100586
0.145263671875,0.370376586914,-0.077743530273,-0.035736083984,-0.009948730469,-0.064285278320
0.058197021484,0.346755981445,-0.053009033203,-0.058013916016,-0.012176513672,-0.101135253906
0.003662109375,0.340774536133,-0.034744262695,-0.072921752930,-0.015747070313,-0.115234375000
-0.112274169922,0.254257202148,0.143157958984,-0.104522705078,-0.027236938477,-0.138870239258
-0.126693725586,0.158737182617,0.258438110352,-0.115036010742,-0.025985717773,-0.144363403320
-0.081085205078,-0.018127441406,0.334426879883,-0.115158081055,-0.004592895508,-0.130172729492
-0.046676635742,-0.087081909180,0.306945800781,-0.106430053711,0.005432128906,-0.116439819336
0.001266479492,-0.184173583984,0.196334838867,-0.068481445313,0.014755249023,-0.086868286133
0.004501342773,-0.216049194336,0.152648925781,-0.045608520508,0.011230468750,-0.074188232422
0.021957397461,-0.235809326172,0.074447631836,-0.003784179688,0.002975463867,-0.046035766602
0.038238525391,-0.218841552734,0.056625366211,0.009658813477,-0.002807617188,-0.031356811523
0.059936523438,-0.186218261719,0.036560058594,0.022460937500,-0.010726928711,-0.006698608398
0.069015502930,-0.171066284180,0.050048828125,0.024490356445,-0.013153076172,0.003616333008
0.072082519531,-0.162292480469,0.061706542969,0.026290893555,-0.007431030273,0.019226074219
0.062088012695,-0.164825439453,0.082260131836,0.027893066406,-0.002639770508,0.027847290039
0.056106567383,-0.169281005859,0.101715087891,0.028442382813,0.001403808594,0.037902832031
0.039276123047,-0.145462036133,0.108535766602,0.025238037109,0.010696411133,0.060867309570
0.027938842773,-0.126785278320,0.101547241211,0.026153564453,0.013168334961,0.071487426758
0.005523681641,-0.075180053711,0.096939086914,0.037643432617,0.015716552734,0.085052490234
-0.004379272461,-0.077606201172,0.103530883789,0.045242309570,0.015213012695,0.089965820313
-0.001296997070,-0.021362304688,0.140670776367,0.064926147461,0.009307861328,0.105056762695
-0.009292602539,0.048934936523,0.133651733398,0.071411132813,0.011596679688,0.107284545898
-0.014785766602,0.109573364258,0.122726440430,0.078353881836,0.015014648438,0.102401733398
0.000076293945,0.171066284180,0.079589843750,0.089340209961,0.021270751953,0.082153320313
0.020599365234,0.194107055664,0.065811157227,0.096618652344,0.022781372070,0.072921752930
0.054885864258,0.215942382813,0.005798339844,0.115051269531,0.025604248047,0.055709838867
0.075286865234,0.255447387695,-0.032424926758,0.112304687500,0.021789550781,0.048812866211
0.153244018555,0.308609008789,-0.111572265625,0.095520019531,0.004623413086,0.026031494141
0.198562622070,0.330780029297,-0.101654052734,0.072967529297,-0.009475708008,0.016387939453
0.233306884766,0.339126586914,-0.102462768555,0.047302246094,-0.023559570313,0.004165649414
0.244537353516,0.359512329102,-0.070755004883,-0.022384643555,-0.028411865234,0.002349853516
0.223846435547,0.371871948242,-0.051986694336,-0.055908203125,-0.026245117188,-0.001693725586
0.151809692383,0.348236083984,-0.034103393555,-0.093673706055,-0.016647338867,-0.026855468750
0.117004394531,0.331909179688,-0.021240234375,-0.109283447266,-0.013122558594,-0.040863037109
0.043807983398,0.295333862305,0.003814697266,-0.131347656250,-0.011871337891,-0.064651489258
0.019729614258,0.292358398438,0.040878295898,-0.134490966797,-0.015838623047,-0.075927734375
-0.012786865234,0.265396118164,0.182037353516,-0.129302978516,-0.021652221680,-0.098098754883
-0.034240722656,0.182373046875,0.281051635742,-0.124847412109,-0.017440795898,-0.107559204102
-0.024368286133,0.020538330078,0.294998168945,-0.107666015625,0.002929687500,-0.110870361328
-0.015625000000,-0.046905517578,0.248718261719,-0.090270996094,0.008178710938,-0.105514526367
0.004730224609,-0.107238769531,0.188125610352,-0.044891357422,0.006423950195,-0.084411621094
0.022506713867,-0.184890747070,0.088806152344,-0.025222778320,-0.000015258789,-0.071456909180
0.031494140625,-0.202026367188,0.072006225586,-0.010528564453,-0.007415771484,-0.057479858398
0.065002441406,-0.181823730469,0.046157836914,0.014389038086,-0.016418457031,-0.027359008789
0.079742431641,-0.148880004883,0.033386230469,0.021896362305,-0.019134521484,-0.014511108398
0.085937500000,-0.073440551758,0.041351318359,0.031768798828,-0.020202636719,0.002090454102
0.107910156250,-0.096481323242,0.009368896484,0.035766601563,-0.016738891602,0.005142211914
0.100372314453,-0.061660766602,0.022537231445,0.030303955078,-0.013595581055,0.014190673828
0.104583740234,-0.048690795898,0.033264160156,0.027069091797,-0.010375976563,0.016693115234
0.108459472656,-0.052993774414,0.031707763672,0.019149780273,-0.001449584961,0.019683837891
0.120986938477,-0.032546997070,0.025985717773,0.014587402344,0.002960205078,0.019454956055
0.122833251953,-0.021881103516,0.021484375000,0.008834838867,0.006851196289,0.019210815430
0.126083374023,-0.004882812500,0.009841918945,0.001922607422,0.011444091797,0.019470214844
0.128372192383,0.004501342773,0.001541137695,-0.000274658203,0.011962890625,0.019393920898
0.124557495117,0.006088256836,-0.011520385742,-0.002288818359,0.010299682617,0.016601562500
0.123382568359,0.005569458008,-0.012649536133,-0.002456665039,0.009002685547,0.014373779297
0.121322631836,0.005874633789,-0.015594482422,0.002319335938,0.007415771484,0.009384155273
0.119583129883,0.000961303711,-0.018905639648,0.002304077148,0.005737304688,0.006774902344
0.117935180664,-0.002014160156,-0.017791748047,0.004562377930,0.003768920898,0.004791259766
0.118911743164,-0.006759643555,-0.012557983398,0.007843017578,0.000091552734,0.003341674805
0.120788574219,-0.012908935547,-0.006973266602,0.008529663086,-0.001098632813,0.003860473633
0.122055053711,-0.008285522461,-0.000701904297,0.006881713867,-0.001556396484,0.007034301758
0.124237060547,-0.003067016602,0.000411987305,0.005676269531,-0.001007080078,0.008682250977
0.126968383789,0.005661010742,0.001312255859,0.004302978516,0.000976562500,0.010498046875
0.144805908203,0.035232543945,-0.006072998047,0.003509521484,0.001815795898,0.009826660156
0.153015136719,0.053298950195,-0.014968872070,0.001632690430,0.001678466797,0.007827758789
0.145080566406,0.044479370117,-0.002487182617,-0.000381469727,-0.000411987305,0.000762939453
0.136703491211,0.030426025391,-0.003677368164,-0.000534057617,0.000808715820,-0.001449584961

0.160003662109,0.128082275391,0.047073364258,0.033035278320,0.014053344727,0.006774902344
0.179962158203,0.156845092773,0.045608520508,0.033142089844,0.016662597656,0.001693725586
0.289428710938,0.264358520508,0.010971069336,0.018402099609,0.016723632813,-0.013473510742
0.352600097656,0.356445312500,0.000091552734,-0.004974365234,0.012176513672,-0.023574829102
0.354644775391,0.477188110352,-0.010543823242,-0.015365600586,0.012680053711,-0.069961547852
0.175643920898,0.499938964844,-0.037536621094,0.008972167969,0.021514892578,-0.107513427734
0.029769897461,0.466415405273,-0.075119018555,0.007369995117,0.031982421875,-0.146881103516
-0.200271606445,0.206710815430,-0.083709716797,-0.010559082031,0.033905029297,-0.196899414063
-0.248504638672,0.106521606445,-0.060424804688,-0.028167724609,0.027786254883,-0.198043823242
-0.260513305664,-0.013107299805,-0.009796142578,-0.067031860352,0.020065307617,-0.170410156250
-0.238662719727,-0.044906616211,0.032821655273,-0.085525512695,0.013565063477,-0.151031494141
-0.200683593750,-0.072280883789,0.100784301758,-0.096771240234,-0.000122070313,-0.120544433594
-0.141052246094,-0.073120117188,0.115554809570,-0.088455200195,-0.003921508789,-0.111557006836
-0.141555786133,-0.120147705078,0.120635986328,-0.055633544922,-0.007507324219,-0.105834960938
-0.166061401367,-0.269775390625,0.105606079102,-0.035781860352,-0.006011962891,-0.100891113281
-0.165466308594,-0.278381347656,0.107376098633,-0.014160156250,-0.002593994141,-0.091842651367
-0.176315307617,-0.290100097656,0.082183837891,0.019638061523,0.004455566406,-0.070999145508
-0.142150878906,-0.239349365234,0.108291625977,0.008819580078,0.005142211914,-0.049468994141
-0.129013061523,-0.206192016602,0.078689575195,-0.006500244141,0.014007568359,-0.023284912109
-0.151153564453,-0.218231201172,0.068832397461,-0.005813598633,0.012878417969,-0.018707275391
-0.184249877930,-0.302917480469,0.022613525391,0.005950927734,0.007736206055,-0.016952514648
-0.196960449219,-0.322494506836,0.036956787109,0.009735107422,-0.008728027344,-0.009536743164
-0.199310302734,-0.347579956055,0.042083740234,0.020385742188,-0.027542114258,0.012725830078
-0.186767578125,-0.347488403320,0.032821655273,0.024398803711,-0.033432006836,0.025115966797
-0.178863525391,-0.341384887695,0.026321411133,0.026397705078,-0.045852661133,0.053451538086
-0.157989501953,-0.269775390625,0.033355712891,0.020050048828,-0.050537109375,0.068176269531
-0.142425537109,-0.230392456055,0.042877197266,0.016403198242,-0.053985595703,0.080291748047
-0.107345581055,-0.151626586914,0.072799682617,0.011810302734,-0.054336547852,0.102218627930
-0.092483520508,-0.123199462891,0.086120605469,0.015319824219,-0.049606323242,0.110992431641
-0.061737060547,-0.051879882813,0.111557006836,0.020431518555,-0.039321899414,0.122070312500
-0.060043334961,-0.021835327148,0.118286132813,0.025192260742,-0.033706665039,0.123672485352
-0.053634643555,0.036224365234,0.117248535156,0.034286499023,-0.019195556641,0.124786376953
-0.043746948242,0.058441162109,0.136245727539,0.034652709961,-0.012359619141,0.123992919922
-0.035675048828,0.090423583984,0.140350341797,0.030395507813,0.008255004883,0.120712280273
0.010086059570,0.144638061523,0.117462158203,0.030807495117,0.008697509766,0.122055053711
0.024627685547,0.181793212891,0.127868652344,0.033996582031,0.007034301758,0.121185302734
0.108596801758,0.218170166016,0.083450317383,0.035491943359,0.017990112305,0.096755981445
0.157516479492,0.244644165039,0.039581298828,0.034515380859,0.019393920898,0.085433959961
0.331390380859,0.369064331055,-0.090621948242,0.005172729492,0.012252807617,0.076126098633
0.370864868164,0.445602416992,-0.126892089844,-0.008621215820,0.001388549805,0.061920166016
0.356430053711,0.431274414062,-0.126510620117,-0.005889892578,-0.008010864258,-0.004806518555
0.295852661133,0.333633422852,-0.076644897461,-0.008483886719,-0.001892089844,-0.032836914063
0.248489379883,0.303833007813,-0.058944702148,-0.017532348633,0.006744384766,-0.053070068359
0.135864257813,0.203353881836,-0.004898071289,-0.032943725586,0.017715454102,-0.091293334961
0.099212646484,0.183654785156,-0.009857177734,-0.039062500000,0.024536132813,-0.102615356445
0.035614013672,0.156082153320,0.002273559570,-0.052429199219,0.030334472656,-0.124557495117
0.010070800781,0.138626098633,0.029479980469,-0.058364868164,0.032485961914,-0.130645751953
-0.055664062500,0.151870727539,0.070083618164,-0.076858520508,0.033477783203,-0.132537841797
-0.113464355469,0.118972778320,0.083251953125,-0.081619262695,0.030090332031,-0.137466430664
-0.149948120117,0.062011718750,0.099273681641,-0.083496093750,0.017974853516,-0.139633178711
-0.180892944336,-0.043563842773,0.117065429688,-0.080810546875,0.012344360352,-0.133056640625
-0.177078247070,-0.092636108398,0.125564575195,-0.077453613281,0.010452270508,-0.117721557617
-0.181091308594,-0.199005126953,0.144775390625,-0.059600830078,0.010391235352,-0.109649658203
-0.193130493164,-0.272903442383,0.143264770508,-0.044143676758,0.012207031250,-0.101623535156
-0.212448120117,-0.319351196289,0.081619262695,-0.000213623047,0.015823364258,-0.082229614258
-0.212814331055,-0.327484130859,0.073287963867,0.021408081055,0.014785766602,-0.071121215820
-0.142761230469,-0.212051391602,0.069854736328,0.016082763672,0.010818481445,-0.034545898438
-0.135040283203,-0.200698852539,0.073501586914,0.015319824219,0.008422851563,-0.028778076172
-0.158187866211,-0.251617431641,0.085769653320,0.016876220703,0.002212524414,-0.020645141602
-0.166702270508,-0.266845703125,0.085266113281,0.017700195313,-0.000473022461,-0.014328002930
-0.183166503906,-0.280090332031,0.064163208008,0.025466918945,-0.005310058594,-0.001098632813
-0.192031860352,-0.289459228516,0.058349609375,0.033142089844,-0.009674072266,0.005020141602
-0.199295043945,-0.294433593750,0.045059204102,0.037261962891,-0.024063110352,0.027175903320
-0.181518554688,-0.258224487305,0.043151855469,0.034835815430,-0.034790039063,0.041778564453
-0.167663574219,-0.226730346680,0.052703857422,0.030532836914,-0.043838500977,0.056564331055
-0.135879516602,-0.161972045898,0.064926147461,0.020874023438,-0.053558349609,0.079315185547
-0.125091552734,-0.133087158203,0.063278198242,0.015960693359,-0.055816650391,0.087997436523
-0.087249755859,-0.073760986328,0.072723388672,0.006469726563,-0.058456420898,0.103820800781
-0.068435668945,-0.063430786133,0.083419799805,0.007293701172,-0.058135986328,0.109252929688
-0.046768188477,-0.032760620117,0.121383666992,0.010177612305,-0.051727294922,0.118896484375
-0.040817260742,-0.005874633789,0.094940185547,0.021347045898,-0.044692993164,0.122085571289
-0.027038574219,0.029830932617,0.114364624023,0.038650512695,-0.036285400391,0.123733520508
-0.020706176758,0.049835205078,0.117568969727,0.043457031250,-0.031478881836,0.123703002930
-0.010345458984,0.096145629883,0.137283325195,0.048751831055,-0.023284912109,0.119583129883
0.042663574219,0.117980957031,0.154037475586,0.048736572266,-0.018707275391,0.115020751953
0.077392578125,0.132827758789,0.136672973633,0.049758911133,-0.000244140625,0.112976074219
0.137954711914,0.198959350586,0.072845458984,0.038162231445,0.008926391602,0.109832763672
0.171569824219,0.237014770508,0.012710571289,0.029891967773,0.017486572266,0.103576660156
0.252426147461,0.304275512695,-0.085891723633,0.021423339844,0.022323608398,0.076675415039
0.263534545898,0.293319702148,-0.093887329102,0.022552490234,0.014984130859,0.052993774414
0.273391723633,0.242782592773,-0.093383789063,0.018814086914,0.008255004883,0.009094238281
0.317016601563,0.232971191406,-0.089538574219,0.002761840820,0.012145996094,-0.003219604492
0.366073608398,0.352844238281,-0.100021362305,-0.034027099609,0.033889770508,-0.020034790039
0.321914672852,0.360702514648,-0.108047485352,-0.045379638672,0.047210693359,-0.045959472656
0.270233154297,0.320297241211,-0.069808959961,-0.069290161133,0.056121826172,-0.098327636719
0.171905517578,0.277359008789,0.042007446289,-0.082626342773,0.058303833008,-0.113555908203
0.110366821289,0.278594970703,0.081085205078,-0.089279174805,0.061798095703,-0.127960205078
-0.023986816406,0.192565917969,0.128982543945,-0.094833374023,0.062072753906,-0.150604248047
-0.075531005859,0.132537841797,0.140762329102,-0.093826293945,0.055328369141,-0.151260375977
-0.139999389648,-0.020462036133,0.158737182617,-0.082321166992,0.036468505859,-0.140579223633
-0.149139404297,-0.107971191406,0.173721313477,-0.075408935547,0.031890869141,-0.130935668945
-0.132324218750,-0.205322265625,0.139129638672,-0.058273315430,0.039505004883,-0.099578857422
-0.131622314453,-0.225067138672,0.130615234375,-0.046356201172,0.039825439453,-0.083694458008
-0.141418457031,-0.242935180664,0.062500000000,-0.023635864258,0.045974731445,-0.058090209961
-0.146728515625,-0.223464965820,0.013153076172,-0.009109497070,0.048461914063,-0.045364379883
-0.117919921875,-0.166503906250,-0.028594970703,0.013290405273,0.036682128906,-0.031112670898
-0.077743530273,-0.122619628906,-0.030746459961,0.011123657227,0.032226562500,-0.026535034180
-0.076034545898,-0.106567382813,-0.050445556641,0.010223388672,0.032440185547,-0.026885986328
-0.105758666992,-0.136032104492,-0.051803588867,0.010437011719,0.028182983398,-0.028991699219
-0.153381347656,-0.181732177734,-0.043319702148,0.007339477539,0.012359619141,-0.024261474609
-0.160552978516,-0.174087524414,-0.032974243164,0.003890991211,0.006011962891,-0.019317626953
-0.151443481445,-0.174743652344,0.009201049805,-0.001998901367,-0.003692626953,-0.022994995117
-0.158004760742,-0.240280151367,-0.006057739258,-0.007110595703,-0.004867553711,-0.013565063477
-0.121810913086,-0.172683715820,0.036239624023,-0.020782470703,-0.012817382813,0.027694702148

0.071609497070,0.198760986328,-0.048538208008,0.026931762695,0.029800415039,0.009094238281
0.066787719727,0.219314575195,-0.082794189453,0.023788452148,0.024871826172,0.002380371094
0.068786621094,0.210556030273,-0.116302490234,-0.020782470703,0.006195068359,-0.011688232422
0.076370239258,0.191024780273,-0.124206542969,-0.006500244141,-0.001525878906,-0.017807006836
0.082031250000,0.182907104492,-0.179275512695,0.010879516602,-0.015167236328,-0.019989013672
0.089599609375,0.189086914063,-0.213653564453,0.009811401367,-0.024780273438,-0.016952514648
0.197128295898,0.309570312500,-0.242187500000,0.008880615234,-0.044799804688,-0.010971069336
0.213699340820,0.270843505859,-0.240203857422,0.002807617188,-0.052291870117,-0.017257690430
0.152496337891,0.403503417969,-0.139099121094,-0.056777954102,-0.065689086914,-0.044433593750
0.118957519531,0.422988891602,-0.055862426758,-0.070236206055,-0.066345214844,-0.071350097656
0.028335571289,0.426788330078,0.060882568359,-0.094528198242,-0.048431396484,-0.117141723633
-0.050643920898,0.411773681641,0.102447509766,-0.101547241211,-0.036239624023,-0.135192871094
-0.165527343750,0.260757446289,0.113418579102,-0.106002807617,-0.019210815430,-0.161437988281
-0.183410644531,0.176467895508,0.137252807617,-0.106445312500,-0.020339965820,-0.159057617188
-0.160537719727,0.027938842773,0.167129516602,-0.100891113281,-0.028427124023,-0.131088256836
-0.139617919922,0.005035400391,0.161666870117,-0.092071533203,-0.032791137695,-0.111419677734
-0.114395141602,-0.106323242188,0.199905395508,-0.074279785156,-0.039535522461,-0.090133666992
-0.103454589844,-0.155014038086,0.213867187500,-0.064498901367,-0.035888671875,-0.077590942383
-0.079376220703,-0.256057739258,0.258804321289,-0.041839599609,-0.023895263672,-0.049682617188
-0.069351196289,-0.306243896484,0.291641235352,-0.027481079102,-0.015106201172,-0.035049438477
-0.046356201172,-0.294311523438,0.283050537109,-0.002197265625,0.008544921875,-0.005249023438
-0.048217773438,-0.277191162109,0.257873535156,0.009170532227,0.018707275391,0.006484985352
-0.040222167969,-0.185745239258,0.228820800781,0.029266357422,0.030288696289,0.056762695313
-0.031677246094,-0.185043334961,0.196456909180,0.032989501953,0.035278320313,0.065551757813
-0.047332763672,-0.144378662109,0.171112060547,0.047409057617,0.038101196289,0.083877563477
-0.052536010742,-0.064834594727,0.104415893555,0.054855346680,0.037124633789,0.091323852539
-0.052734375000,-0.016921997070,0.077407836914,0.063507080078,0.031799316406,0.097915649414
-0.057449340820,0.067825317383,0.062194824219,0.081481933594,0.029907226563,0.097640991211
-0.056472778320,0.119232177734,0.063934326172,0.090301513672,0.029968261719,0.095504760742
-0.041961669922,0.200973510742,0.048828125000,0.105422973633,0.032302856445,0.083709716797
-0.019958496094,0.233779907227,0.031417846680,0.107696533203,0.030822753906,0.076278686523
0.163604736328,0.288803100586,-0.178100585938,0.084579467773,0.017440795898,0.068893432617
0.270355224609,0.360321044922,-0.364288330078,0.059188842773,0.006607055664,0.078750610352
0.392883300781,0.486053466797,-0.499938964844,0.006134033203,-0.049743652344,0.056457519531
0.405563354492,0.499557495117,-0.445846557617,-0.020416259766,-0.078353881836,0.023284912109
0.259918212891,0.490005493164,-0.151229858398,-0.061111450195,-0.058700561523,-0.057495117188
0.143447875977,0.453033447266,-0.043350219727,-0.073532104492,-0.044036865234,-0.091049194336
-0.029693603516,0.342651367188,0.080535888672,-0.089889526367,-0.020019531250,-0.134811401367
-0.076187133789,0.264862060547,0.101577758789,-0.094955444336,-0.007858276367,-0.148056030273
-0.120391845703,0.084045410156,0.101867675781,-0.090774536133,0.005050659180,-0.143325805664
-0.135101318359,0.005264282227,0.093490600586,-0.084808349609,0.002059936523,-0.131912231445
-0.089874267578,-0.031768798828,0.089035034180,-0.066329956055,-0.008377075195,-0.089889526367
-0.069946289063,-0.109100341797,0.114822387695,-0.057998657227,-0.020965576172,-0.087158203125
-0.069107055664,-0.177505493164,0.154434204102,-0.048645019531,-0.017486572266,-0.052505493164
-0.039901733398,-0.199844360352,0.186874389648,-0.041778564453,-0.017303466797,-0.037475585938
-0.019104003906,-0.248687744141,0.240966796875,-0.020828247070,-0.009445190430,-0.012908935547
-0.006759643555,-0.249954223633,0.245498657227,-0.009796142578,-0.002334594727,0.000656127930
-0.009063720703,-0.206756591797,0.215454101563,0.008056640625,0.012710571289,0.025756835938
-0.016326904297,-0.182907104492,0.196014404297,0.015258789063,0.019409179688,0.038146972656
-0.028533935547,-0.168441772461,0.180343627930,0.027343750000,0.026138305664,0.063613891602
-0.037765502930,-0.111709594727,0.155899047852,0.031890869141,0.028884887695,0.076583862305
-0.039718627930,-0.071762084961,0.141784667969,0.035125732422,0.032562255859,0.097396850586
-0.052230834961,0.007308959961,0.091400146484,0.040908813477,0.038696289063,0.103668212891
-0.057067871094,0.038558959961,0.077056884766,0.045089721680,0.038070678711,0.108566284180
-0.048751831055,0.103210449219,0.077911376953,0.053359985352,0.037841796875,0.114837646484
-0.014739990234,0.145858764648,0.087783813477,0.057632446289,0.040649414063,0.114120483398
0.041091918945,0.213134765625,0.026382446289,0.066787719727,0.044876098633,0.091751098633
0.105895996094,0.252319335938,-0.016372680664,0.061309814453,0.040130615234,0.087310791016
0.171051025391,0.289901733398,-0.139938354492,0.045578002930,0.021652221680,0.080047607422
0.146484375000,0.262145996094,-0.149078369141,0.041748046875,0.010543823242,0.065704345703
0.148803710938,0.189636230469,-0.113311767578,0.033889770508,-0.004531860352,0.033828735352
0.119064331055,0.142379760742,-0.084793090820,0.025756835938,-0.008117675781,0.021667480469
0.115631103516,0.131942749023,-0.074707031250,0.008743286133,0.000854492188,0.016860961914
0.127792358398,0.103607177734,-0.042984008789,-0.001571655273,0.007476806641,0.018310546875
0.086486816406,0.100677490234,-0.060623168945,-0.009017944336,0.017883300781,0.028442382813
0.084503173828,0.123092651367,-0.077194213867,-0.026031494141,0.031372070313,0.030853271484
0.083374023438,0.122833251953,-0.098831176758,-0.028945922852,0.036941528320,0.030075073242
0.101882934570,0.157791137695,-0.115905761719,-0.018020629883,0.035049438477,0.035476684570
0.100067138672,0.167602539063,-0.131942749023,-0.022705078125,0.033248901367,0.034347534180
0.090545654297,0.201736450195,-0.208084106445,-0.044769287109,0.025146484375,0.022964477539
0.083190917969,0.196395874023,-0.181762695313,-0.047714233398,0.009780883789,0.011306762695
0.036407470703,0.081008911133,-0.043212890625,0.000213623047,-0.014831542969,-0.005203247070
0.065689086914,0.054138183594,0.047866821289,0.007766723633,-0.016632080078,-0.004211425781
0.091445922852,0.067611694336,0.070281982422,-0.005508422852,0.009780883789,0.014892578125
0.102859497070,0.120956420898,-0.000961303711,-0.013427734375,0.030731201172,0.027526855469
0.083786010742,0.183959960938,-0.083160400391,-0.014541625977,0.043045043945,0.020172119141
0.054290771484,0.149139404297,-0.175949096680,-0.008682250977,0.035125732422,0.009902954102
0.045089721680,0.124450683594,-0.154754638672,-0.003143310547,0.007019042969,-0.005798339844
0.022232055664,0.064758300781,-0.087982177734,0.002716064453,-0.002792358398,-0.011123657227
0.028137207031,0.049652099609,-0.063278198242,0.004531860352,-0.008224487305,-0.008438110352
0.037353515625,0.035720825195,-0.029373168945,0.013137817383,-0.012619018555,-0.011276245117
0.041213989258,0.029861450195,-0.016006469727,0.016647338867,-0.012161254883,-0.010086059570
0.058074951172,0.039642333984,-0.014160156250,0.012344360352,-0.005111694336,-0.003356933594
0.060333251953,0.049057006836,-0.015563964844,0.011566162109,-0.001525878906,0.000350952148
0.072525024414,0.077453613281,-0.025466918945,0.009643554688,0.003372192383,0.007598876953
0.070159912109,0.096832275391,-0.039810180664,0.010345458984,0.005996704102,0.010391235352
0.061996459961,0.099578857422,-0.051605224609,0.013641357422,0.007537841797,0.010894775391
0.056838989258,0.101928710938,-0.049331665039,0.009246826172,0.007598876953,0.010498046875
0.048538208008,0.090667724609,-0.045700073242,0.005599975586,0.005447387695,0.008911132813
0.046951293945,0.088592529297,-0.043395996094,0.005416870117,0.004287719727,0.008575439453
0.048675537109,0.088409423828,-0.042083740234,0.005233764648,0.002761840820,0.008102416992
0.057464599609,0.116073608398,-0.052169799805,0.004592895508,0.002670288086,0.006927490234
0.059692382813,0.119720458984,-0.055877685547,0.006317138672,0.001876831055,0.004714965820
0.066482543945,0.154327392578,-0.072341918945,0.005828857422,0.001388549805,0.004318237305
0.067169189453,0.154891967773,-0.071578979492,0.006546020508,0.000335693359,0.001922607422
0.062423706055,0.139556884766,-0.058532714844,0.005325317383,-0.000656127930,-0.000946044922
0.059631347656,0.131088256836,-0.054794311523,0.003189086914,-0.000411987305,-0.000915527344
0.051361083984,0.113662719727,-0.052947998047,0.000106811523,0.000686645508,-0.000930786133
0.048171997070,0.106430053711,-0.052536010742,-0.000671386719,0.000534057617,-0.001159667969
0.048217773438,0.099441528320,-0.050933837891,-0.000854492188,-0.000671386719,-0.002166748047
0.050048828125,0.096313476563,-0.047332763672,-0.000381469727,-0.001190185547,-0.002853393555
0.054656982422,0.094711303711,-0.046127319336,0.000122070313,-0.001205444336,-0.003204345703
0.055969238281,0.094375610352,-0.046920776367,0.000076293945,-0.000961303711,-0.003189086914
0.057327270508,0.091522216797,-0.046279907227,0.000854492188,-0.000305175781,-0.002456665039

0.013214111328,0.217849731445,-0.110733032227,-0.039459228516,0.027374267578,0.038574218750
0.015014648438,0.229553222656,-0.123062133789,-0.023742675781,0.013397216797,0.030227661133
0.013916015625,0.235931396484,-0.148803710938,0.001983642578,-0.011215209961,0.006484985352
0.032791137695,0.260192871094,-0.150787353516,-0.000350952148,-0.023010253906,-0.003646850586
0.036941528320,0.289169311523,-0.192672729492,-0.006896972656,-0.034454345703,-0.023773193359
0.043182373047,0.309768676758,-0.195480346680,-0.021087646484,-0.040267944336,-0.031921386719
0.020401000977,0.299926757813,-0.132766723633,-0.069244384766,-0.043945312500,-0.045776367188
-0.007797241211,0.263549804688,-0.127395629883,-0.069992065430,-0.039245605469,-0.055297851563
-0.027572631836,0.182388305664,-0.096206665039,-0.079299926758,-0.021057128906,-0.069335937500
-0.051651000977,0.158370971680,-0.091918945313,-0.086868286133,-0.017700195313,-0.069259643555
-0.041290283203,0.153533935547,-0.063781738281,-0.100006103516,-0.026107788086,-0.064987182617
-0.020812988281,0.148178100586,-0.051559448242,-0.097167968750,-0.031097412109,-0.065093994141
-0.022613525391,0.144882202148,-0.057586669922,-0.084915161133,-0.042343139648,-0.069046020508
-0.030700683594,0.103668212891,-0.066299438477,-0.072738647461,-0.051727294922,-0.072830200195
-0.056137084961,0.063201904297,-0.120864868164,-0.038314819336,-0.074295043945,-0.081512451172
-0.114624023438,-0.035064697266,-0.117843627930,-0.022583007813,-0.087875366211,-0.084152221680
-0.121948242188,-0.097808837891,-0.070053100586,0.003707885742,-0.118637084961,-0.085403442383
-0.141616821289,-0.113204956055,-0.012573242188,0.013244628906,-0.131973266602,-0.085510253906
-0.121612548828,-0.098876953125,0.042312622070,0.030502319336,-0.141784667969,-0.083251953125
-0.116989135742,-0.116653442383,0.067932128906,0.037948608398,-0.140609741211,-0.083419799805
-0.107849121094,-0.191787719727,0.193374633789,0.041961669922,-0.131683349609,-0.077682495117
-0.083450317383,-0.266372680664,0.301788330078,0.039474487305,-0.117004394531,-0.068618774414
-0.042892456055,-0.378860473633,0.491867065430,0.020660400391,-0.065261840820,-0.016403198242
0.020584106445,-0.371292114258,0.499938964844,-0.007507324219,-0.019378662109,0.018493652344
0.029998779297,-0.313278198242,0.395446777344,-0.034454345703,0.068923950195,0.060409545898
0.004089355469,-0.160095214844,0.232849121094,-0.036026000977,0.085830688477,0.070449829102
-0.008773803711,-0.115158081055,0.178161621094,-0.032516479492,0.098541259766,0.072647094727
-0.024566650391,-0.064071655273,0.100173950195,-0.024322509766,0.098129272461,0.071578979492
-0.018417358398,-0.049728393555,0.064331054688,-0.016647338867,0.095764160156,0.070159912109
0.010620117188,0.002304077148,0.043624877930,-0.005172729492,0.088806152344,0.067764282227
0.020050048828,0.029815673828,0.051574707031,-0.004821777344,0.087142944336,0.065246582031
0.023300170898,0.092880249023,0.025772094727,-0.009658813477,0.094497680664,0.056213378906
0.012893676758,0.113754272461,-0.000854492188,-0.013305664063,0.101654052734,0.048355102539
-0.039886474609,0.087310791016,-0.064636230469,-0.027633666992,0.113204956055,0.026443481445
-0.074600219727,0.062835693359,-0.145217895508,-0.027435302734,0.118957519531,0.018814086914
-0.102798461914,0.001602172852,-0.421417236328,-0.035842895508,0.126174926758,0.023986816406
-0.084777832031,0.020370483398,-0.499938964844,-0.045867919922,0.107177734375,0.025894165039
-0.030349731445,0.062530517578,-0.499938964844,-0.031555175781,0.033096313477,0.015411376953
0.008026123047,0.089050292969,-0.499938964844,-0.018753051758,-0.000259399414,0.009826660156
0.008453369141,0.048522949219,-0.384002685547,0.003295898438,-0.054946899414,-0.006546020508
0.005249023438,0.024612426758,-0.303512573242,0.005630493164,-0.067993164063,-0.010787963867
0.005493164063,-0.025878906250,-0.202743530273,0.004364013672,-0.074600219727,-0.015457153320
0.016036987305,-0.022003173828,-0.179687500000,-0.002624511719,-0.071395874023,-0.012725830078
0.028213500977,0.000274658203,-0.176361083984,-0.020324707031,-0.061584472656,-0.003051757813
0.059356689453,0.070571899414,-0.180175781250,-0.023941040039,-0.059860229492,-0.002716064453
0.060287475586,0.082092285156,-0.185607910156,-0.020370483398,-0.064743041992,-0.013961791992
0.032791137695,0.058593750000,-0.178390502930,-0.006454467773,-0.073730468750,-0.020874023438
0.015625000000,0.044189453125,-0.169692993164,0.000625610352,-0.083145141602,-0.032409667969
-0.009643554688,0.054290771484,-0.109756469727,0.012069702148,-0.105651855469,-0.038131713867
-0.025253295898,0.048873901367,-0.070083618164,0.019073486328,-0.113967895508,-0.052902221680
-0.068679809570,0.024337768555,0.003341674805,0.035186767578,-0.120086669922,-0.059616088867
-0.097030639648,0.003738403320,0.036697387695,0.045333862305,-0.118713378906,-0.075393676758
-0.175186157227,-0.094650268555,0.165771484375,0.070236206055,-0.147964477539,-0.078872680664
-0.160156250000,-0.199630737305,0.276153564453,0.081054687500,-0.134658813477,-0.080230712891
-0.094940185547,-0.436935424805,0.465957641602,0.057037353516,-0.075454711914,-0.051025390625
-0.056045532227,-0.458221435547,0.484375000000,0.025146484375,-0.038604736328,-0.015411376953
-0.040710449219,-0.298156738281,0.356704711914,-0.022659301758,0.024963378906,0.057342529297
-0.041000366211,-0.207015991211,0.279022216797,-0.023681640625,0.044448852539,0.080368041992
-0.054458618164,-0.128768920898,0.137893676758,-0.016677856445,0.070388793945,0.094421386719
-0.063018798828,-0.109298706055,0.091781616211,-0.008102416992,0.073455810547,0.097152709961
-0.068710327148,-0.089599609375,0.019607543945,0.009857177734,0.069046020508,0.095748901367
-0.066314697266,-0.079757690430,0.017410278320,0.015457153320,0.061996459961,0.093353271484
-0.056945800781,-0.018142700195,-0.001205444336,0.017272949219,0.056900024414,0.088516235352
-0.047470092773,-0.000518798828,0.009277343750,0.016998291016,0.053802490234,0.082977294922
-0.032592773438,0.052780151367,0.023132324219,0.017181396484,0.052536010742,0.069519042969
-0.034271240234,0.078674316406,0.024581909180,0.013610839844,0.052688598633,0.058898925781
-0.013992309570,0.155181884766,0.007904052734,-0.011581420898,0.053588867188,0.040985107422
-0.007476806641,0.170516967773,-0.020187377930,-0.010711669922,0.054275512695,0.029846191406
-0.076110839844,0.175155639648,-0.214477539063,-0.008941650391,0.065185546875,0.066848754883
0.025314331055,0.194778442383,-0.260589599609,-0.036911010742,0.052078247070,0.075988769531
0.094543457031,0.203811645508,-0.309631347656,0.018157958984,0.023178100586,0.050094604492
0.105834960938,0.146301269531,-0.295791625977,0.036392211914,0.004791259766,0.025207519531
0.116653442383,0.151046752930,-0.196899414063,0.035095214844,-0.011947631836,0.034973144531
0.137908935547,0.137939453125,-0.052642822266,0.057937622070,-0.030914306641,0.036163330078
0.035614013672,0.047760009766,0.024444580078,0.053695678711,-0.026550292969,0.039550781250
0.044006347656,-0.048980712891,0.056930541992,0.074462890625,-0.026168823242,0.081039428711
-0.041305541992,-0.048538208008,0.062194824219,0.072067260742,-0.006973266602,0.109451293945
0.123764038086,0.034210205078,0.252548217773,0.000579833984,-0.005767822266,0.102050781250
-0.092391967773,0.214935302734,0.176300048828,-0.046737670898,0.014602661133,0.131607055664
-0.108993530273,0.499938964844,-0.391952514648,-0.017532348633,0.098922729492,0.207550048828
-0.190933227539,0.499938964844,-0.379745483398,-0.000427246094,0.041122436523,0.092910766602
-0.035888671875,0.218750000000,-0.084060668945,-0.004180908203,-0.026016235352,-0.057235717773
-0.028808593750,0.145126342773,-0.070877075195,0.014450073242,-0.021072387695,-0.066192626953
-0.052368164063,0.048217773438,-0.054016113281,0.037658691406,-0.012222290039,-0.065109252930
-0.053176879883,0.004623413086,-0.060348510742,0.037658691406,-0.012893676758,-0.065368652344
0.021942138672,-0.073608398438,0.009735107422,0.029571533203,-0.024230957031,-0.053253173828
0.028839111328,-0.081146240234,0.037628173828,0.035293579102,-0.023178100586,-0.036682128906
0.018188476563,-0.027023315430,0.030548095703,0.022552490234,-0.011428833008,-0.000076293945
0.037857055664,0.029205322266,0.042846679688,0.004043579102,-0.009918212891,0.014816284180
0.054718017578,0.075653076172,0.049636840820,0.003784179688,-0.003631591797,0.026000976563
0.057876586914,0.138244628906,0.039077758789,0.004104614258,0.002395629883,0.029235839844
0.045364379883,0.190505981445,0.009994506836,0.004806518555,0.008422851563,0.033767700195
0.012725830078,0.244018554688,-0.045974731445,0.006774902344,0.014511108398,0.022659301758
0.018798828125,0.216094970703,-0.037033081055,-0.001144409180,0.007400512695,0.009597778320
0.022766113281,0.143157958984,-0.033218383789,-0.004394531250,0.001647949219,-0.006088256836
0.025009155273,0.118148803711,-0.027221679688,-0.002639770508,-0.000320434570,-0.008529663086
0.027847290039,0.089889526367,-0.016326904297,0.004470825195,-0.001419067383,-0.008560180664
0.024902343750,0.083618164063,-0.016830444336,0.006988525391,-0.001342773438,-0.006851196289
0.030334472656,0.091888427734,-0.009277343750,0.009033203125,-0.001739501953,-0.001571655273
0.030288696289,0.098175048828,-0.007797241211,0.008300781250,-0.001647949219,0.000228881836
0.032989501953,0.115234375000,0.000045776367,0.006240844727,-0.001693725586,0.003326416016
0.029785156250,0.121246337891,-0.000396728516,0.005493164063,-0.001373291016,0.003753662109
0.028854370117,0.123443603516,0.000473022461,0.004333496094,-0.001037597656,0.003356933594
0.027969360352,0.122268676758,-0.001220703125,0.003753662109,-0.000717163086,0.003173828125

0.041717529297,0.225280761719,-0.046859741211,-0.040954589844,0.020004272461,-0.043792724609
0.041442871094,0.216140747070,-0.068054199219,-0.037551879883,0.020690917969,-0.050506591797
0.040496826172,0.192535400391,-0.079772949219,-0.031753540039,0.021759033203,-0.059783935547
0.024841308594,0.125915527344,-0.108810424805,-0.030364990234,0.023773193359,-0.060913085938
0.011322021484,0.052032470703,-0.158477783203,-0.023712158203,0.020156860352,-0.052810668945
0.015655517578,0.079421997070,-0.183654785156,-0.022125244141,0.015777587891,-0.042709350586
0.036605834961,0.170669555664,-0.226135253906,-0.028106689453,0.004547119141,-0.030990600586
0.032730102539,0.186157226563,-0.268890380859,-0.026718139648,-0.001647949219,-0.033630371094
0.031143188477,0.229690551758,-0.307373046875,-0.027725219727,-0.020202636719,-0.042617797852
0.020324707031,0.229751586914,-0.300659179688,-0.025146484375,-0.032058715820,-0.050369262695
0.002624511719,0.204177856445,-0.200378417969,-0.030563354492,-0.061157226563,-0.063217163086
-0.008102416992,0.174331665039,-0.156738281250,-0.028976440430,-0.068817138672,-0.069259643555
-0.019042968750,0.110122680664,-0.100173950195,-0.021408081055,-0.074157714844,-0.076873779297
-0.036148071289,0.119232177734,-0.062255859375,-0.018035888672,-0.076965332031,-0.076187133789
-0.041656494141,0.107818603516,-0.024124145508,-0.012313842773,-0.071884155273,-0.082702636719
-0.093093872070,0.146316528320,-0.069869995117,-0.013168334961,-0.071487426758,-0.083618164063
-0.094619750977,0.130813598633,0.082641601563,-0.051132202148,-0.093963623047,-0.098236083984
-0.112930297852,0.027923583984,0.051498413086,-0.003524780273,-0.080688476563,-0.095916748047
-0.144821166992,-0.046417236328,-0.087631225586,0.018493652344,-0.111389160156,-0.090240478516
-0.135787963867,-0.242767333984,0.344223022461,0.036956787109,-0.082565307617,-0.085372924805
-0.087036132813,-0.355545043945,0.446487426758,-0.000854492188,-0.019363403320,-0.049179077148
-0.028198242188,-0.478927612305,0.499938964844,-0.004196166992,0.014907836914,-0.013961791992
-0.030151367188,-0.409210205078,0.468811035156,-0.016616821289,0.069610595703,0.039749145508
-0.048461914063,-0.181777954102,0.292068481445,-0.018951416016,0.081787109375,0.050781250000
-0.063919067383,-0.148147583008,0.216613769531,-0.010009765625,0.092330932617,0.052032470703
-0.084167480469,-0.125259399414,0.095245361328,0.007553100586,0.092575073242,0.058273315430
-0.075241088867,-0.071807861328,0.075027465820,0.012741088867,0.087326049805,0.065780639648
-0.059844970703,0.010589599609,0.043334960938,0.014068603516,0.081161499023,0.069976806641
-0.055587768555,0.044311523438,0.026733398438,0.007659912109,0.084579467773,0.068923950195
-0.061645507813,0.091659545898,-0.010345458984,-0.012100219727,0.098480224609,0.063629150391
-0.076568603516,0.087615966797,-0.048690795898,-0.020385742188,0.108261108398,0.058624267578
-0.115127563477,0.062744140625,-0.219451904297,-0.034912109375,0.122528076172,0.049255371094
-0.079650878906,0.105545043945,-0.343841552734,-0.040557861328,0.121658325195,0.049346923828
-0.060180664063,0.126113891602,-0.499938964844,-0.023635864258,0.090789794922,0.027313232422
-0.020355224609,0.138763427734,-0.499938964844,-0.012802124023,0.060470581055,0.018630981445
0.005828857422,0.153778076172,-0.499938964844,0.002899169922,-0.008407592773,0.002838134766
0.008041381836,0.110855102539,-0.493545532227,0.009155273438,-0.036621093750,-0.006469726563
0.003234863281,0.078750610352,-0.395919799805,0.005935668945,-0.057250976563,-0.013412475586
-0.008010864258,0.006271362305,-0.296752929688,0.000015258789,-0.059204101563,-0.014053344727
-0.003005981445,0.015945434570,-0.278106689453,-0.009857177734,-0.060134887695,-0.009078979492
0.013290405273,0.089889526367,-0.260345458984,-0.023254394531,-0.064941406250,-0.008819580078
0.012329101563,0.116378784180,-0.258941650391,-0.024490356445,-0.069778442383,-0.011413574219
-0.010452270508,0.116363525391,-0.221481323242,-0.016616821289,-0.086685180664,-0.022796630859
-0.027404785156,0.103149414063,-0.189666748047,-0.011901855469,-0.096191406250,-0.029083251953
-0.051025390625,0.106979370117,-0.102416992188,-0.003417968750,-0.112487792969,-0.041076660156
