ax,ay,az,gx,gy,gz
-0.051086425781,-0.081268310547,0.173278808594,0.005981445313,-0.011749267578,-0.008789062500
-0.047546386719,-0.110305786133,0.166793823242,0.004135131836,-0.005142211914,-0.011123657227
-0.063110351563,-0.129333496094,0.150192260742,0.003448486328,0.003341674805,-0.007003784180
-0.056930541992,-0.114059448242,0.151901245117,0.007354736328,0.004180908203,-0.002548217773
-0.057434082031,-0.082382202148,0.117233276367,0.018157958984,0.008026123047,-0.000656127930
-0.057846069336,-0.078475952148,0.090179443359,0.021835327148,0.008056640625,-0.002899169922
-0.054061889648,-0.063552856445,0.080276489258,0.027603149414,-0.002151489258,-0.007537841797
-0.054870605469,-0.065597534180,0.093246459961,0.031372070313,-0.008102416992,-0.011764526367
-0.036575317383,-0.103988647461,0.098693847656,0.034988403320,-0.012847900391,-0.020980834961
-0.025466918945,-0.108184814453,0.104110717773,0.031539916992,-0.013397216797,-0.020217895508
-0.022750854492,-0.105651855469,0.108169555664,0.022079467773,-0.010391235352,-0.013854980469
-0.008743286133,-0.100799560547,0.135070800781,0.020462036133,-0.007659912109,-0.012390136719
0.008041381836,-0.103439331055,0.125946044922,0.016876220703,0.006072998047,-0.008224487305
0.020614624023,-0.109832763672,0.090469360352,0.014007568359,0.010864257813,-0.005752563477
0.030502319336,-0.107559204102,0.087203979492,0.012832641602,0.012023925781,-0.002838134766
0.039077758789,-0.093139648438,0.086730957031,0.006469726563,0.013412475586,0.002685546875
0.049224853516,-0.085098266602,0.076492309570,0.004501342773,0.015625000000,0.004455566406
0.058624267578,-0.079605102539,0.058868408203,0.002655029297,0.015655517578,0.004745483398
0.065414428711,-0.079116821289,0.053833007813,0.000183105469,0.013595581055,0.004943847656
0.077560424805,-0.068328857422,0.060272216797,-0.000808715820,0.007720947266,0.005416870117
0.082458496094,-0.060241699219,0.065841674805,-0.001052856445,0.006057739258,0.004623413086
0.088439941406,-0.055587768555,0.090927124023,0.000320434570,0.004409790039,0.000137329102
0.092178344727,-0.057601928711,0.093673706055,-0.001586914063,0.006484985352,-0.002349853516
0.094100952148,-0.057998657227,0.093612670898,-0.009826660156,0.011093139648,-0.005676269531
0.099044799805,-0.073654174805,0.069625854492,-0.011428833008,0.011322021484,-0.005767822266
0.094360351563,-0.084732055664,0.076126098633,-0.016387939453,0.010253906250,-0.000747680664
0.074447631836,-0.099105834961,0.101623535156,-0.030700683594,0.011352539063,0.003845214844
0.059524536133,-0.105484008789,0.093887329102,-0.030303955078,0.015075683594,0.008850097656
0.027236938477,-0.074829101563,0.060379028320,-0.033584594727,0.020828247070,0.021240234375
0.016250610352,-0.050170898438,0.051010131836,-0.033218383789,0.019195556641,0.024108886719
-0.008972167969,-0.031402587891,0.043838500977,-0.028366088867,0.009216308594,0.019165039063
-0.021575927734,-0.036437988281,0.043518066406,-0.024017333984,0.002975463867,0.014968872070
-0.036743164063,-0.045669555664,0.071792602539,-0.013534545898,-0.012664794922,0.008255004883
-0.042724609375,-0.047790527344,0.102584838867,-0.009582519531,-0.020462036133,0.005157470703
-0.042480468750,-0.051010131836,0.159271240234,-0.002960205078,-0.025482177734,-0.000366210937
-0.038513183594,-0.060150146484,0.169250488281,0.000228881836,-0.021011352539,-0.003692626953
-0.034713745117,-0.087860107422,0.163024902344,0.001312255859,-0.008773803711,-0.007568359375
-0.035507202148,-0.093841552734,0.154327392578,-0.001007080078,-0.004501342773,-0.006423950195
-0.038818359375,-0.092712402344,0.129745483398,0.001388549805,0.000656127930,-0.002944946289
-0.034332275391,-0.087905883789,0.127395629883,0.002120971680,0.000793457031,-0.001205444336
-0.029190063477,-0.083953857422,0.125534057617,0.004516601563,0.001205444336,0.000045776367
-0.022109985352,-0.083099365234,0.122604370117,0.008193969727,0.001327514648,0.000442504883
-0.019668579102,-0.077606201172,0.116622924805,0.010284423828,0.001296997070,0.001708984375
-0.016220092773,-0.064514160156,0.114501953125,0.011901855469,0.000579833984,0.000869750977
-0.015991210938,-0.064682006836,0.110397338867,0.012924194336,0.000305175781,-0.000717163086
-0.017150878906,-0.067718505859,0.090301513672,0.013870239258,-0.000442504883,-0.004211425781
-0.027877807617,-0.071319580078,0.082000732422,0.016098022461,-0.002426147461,-0.006134033203
-0.012313842773,-0.071640014648,0.104721069336,0.016113281250,-0.009063720703,-0.008026123047
-0.015991210938,-0.076583862305,0.108505249023,0.018463134766,-0.009643554688,-0.010528564453
-0.013351440430,-0.087860107422,0.095169067383,0.020538330078,-0.008056640625,-0.012359619141
-0.011383056641,-0.091278076172,0.094161987305,0.020004272461,-0.008712768555,-0.011947631836
-0.001098632813,-0.092681884766,0.111953735352,0.015289306641,-0.010223388672,-0.009719848633
-0.002426147461,-0.092819213867,0.124038696289,0.015411376953,-0.008789062500,-0.008636474609
0.009658813477,-0.091156005859,0.113052368164,0.012222290039,-0.000167846680,-0.003829956055
0.006805419922,-0.086914062500,0.102661132813,0.009323120117,0.002670288086,-0.001770019531
0.009765625000,-0.078125000000,0.078628540039,0.005371093750,0.004821777344,0.000396728516
0.016128540039,-0.071868896484,0.081085205078,0.002227783203,0.003189086914,0.000778198242
0.020065307617,-0.066207885742,0.096649169922,0.005599975586,0.002273559570,-0.001312255859
0.017364501953,-0.069168090820,0.104080200195,0.000442504883,0.003631591797,-0.002105712891
0.021102905273,-0.080307006836,0.082794189453,0.002273559570,0.006622314453,-0.003753662109
0.023864746094,-0.078796386719,0.081359863281,0.001907348633,0.006088256836,-0.003234863281
0.025527954102,-0.078262329102,0.081420898438,-0.003662109375,0.005126953125,-0.003494262695
0.015228271484,-0.089721679688,0.074569702148,-0.004394531250,0.005081176758,-0.003738403320
0.023529052734,-0.089447021484,0.077713012695,-0.000991821289,0.003219604492,-0.002761840820
0.024200439453,-0.072113037109,0.088516235352,-0.001373291016,0.002456665039,-0.001693725586
0.037521362305,-0.079177856445,0.068710327148,-0.000854492188,0.003341674805,-0.002532958984
0.022369384766,-0.080764770508,0.085632324219,0.000244140625,-0.000869750977,-0.002395629883
0.021652221680,-0.071823120117,0.102386474609,-0.000366210937,-0.001968383789,-0.001876831055
0.017517089844,-0.066390991211,0.085739135742,-0.001358032227,0.002746582031,-0.004592895508
0.016540527344,-0.072982788086,0.075546264648,-0.001174926758,0.003372192383,-0.006469726563
0.011260986328,-0.085693359375,0.079467773438,-0.000793457031,0.000701904297,-0.007781982422
0.007705688477,-0.090728759766,0.081054687500,-0.000106811523,-0.000076293945,-0.007339477539
0.003128051758,-0.094863891602,0.083847045898,0.001388549805,-0.001495361328,-0.005050659180
0.001174926758,-0.093231201172,0.084915161133,0.002365112305,-0.002288818359,-0.003540039063
-0.002655029297,-0.091430664063,0.089141845703,0.003631591797,-0.003921508789,-0.001770019531
-0.005279541016,-0.094192504883,0.092712402344,0.004043579102,-0.004470825195,-0.001403808594
-0.006881713867,-0.090881347656,0.096420288086,0.004455566406,-0.004150390625,-0.000076293945
-0.008819580078,-0.084854125977,0.098312377930,0.004364013672,-0.003967285156,0.000152587891
-0.012481689453,-0.093048095703,0.097412109375,0.004440307617,-0.002883911133,-0.001434326172
-0.013870239258,-0.098083496094,0.096618652344,0.004013061523,-0.002441406250,-0.001739501953
-0.014877319336,-0.097457885742,0.097656250000,0.003829956055,-0.002044677734,-0.001052856445
-0.016128540039,-0.095245361328,0.099639892578,0.003677368164,-0.001632690430,-0.000991821289
-0.015838623047,-0.095901489258,0.099288940430,0.003204345703,-0.000762939453,-0.000854492188
-0.012832641602,-0.094619750977,0.097030639648,0.003036499023,-0.000610351563,-0.000564575195
-0.011505126953,-0.093658447266,0.094406127930,0.003036499023,-0.000259399414,-0.000350952148
-0.009399414063,-0.094314575195,0.091751098633,0.002929687500,-0.000442504883,-0.000381469727
-0.008636474609,-0.095993041992,0.092117309570,0.003112792969,-0.000534057617,-0.000427246094
-0.007247924805,-0.096649169922,0.088363647461,0.002853393555,-0.000228881836,-0.000198364258
-0.006240844727,-0.094497680664,0.089019775391,0.002914428711,-0.000350952148,0.000137329102
-0.004852294922,-0.092529296875,0.088333129883,0.002899169922,-0.000335693359,0.000228881836
-0.004974365234,-0.093368530273,0.087142944336,0.002731323242,-0.000228881836,0.000137329102
-0.003982543945,-0.091583251953,0.087829589844,0.002136230469,-0.000289916992,0.000228881836
-0.003723144531,-0.091644287109,0.086593627930,0.001831054688,-0.000015258789,0.000167846680
-0.003753662109,-0.092727661133,0.084823608398,0.001419067383,-0.000015258789,-0.000030517578
-0.003738403320,-0.092544555664,0.085601806641,0.001419067383,-0.000152587891,0.000061035156
-0.004638671875,-0.091735839844,0.085311889648,0.001403808594,-0.000259399414,0.000213623047
-0.005187988281,-0.091384887695,0.085128784180,0.001480102539,-0.000366210937,0.000259399414
-0.007019042969,-0.092300415039,0.085418701172,0.001174926758,-0.000488281250,0.000122070313
-0.007904052734,-0.091873168945,0.086242675781,0.001251220703,-0.000625610352,0.000122070313
-0.007720947266,-0.090423583984,0.087219238281,0.000930786133,-0.000534057617,-0.000015258789
-0.008056640625,-0.093353271484,0.087341308594,0.000793457031,-0.000396728516,-0.000305175781
-0.008544921875,-0.095184326172,0.086822509766,0.000854492188,-0.000396728516,0.000076293945
-0.009201049805,-0.093368530273,0.087692260742,0.001113891602,-0.000427246094,0.000381469727
-0.008773803711,-0.092468261719,0.088272094727,0.001342773438,-0.000213623047,0.000518798828

-0.042190551758,-0.093887329102,0.186767578125,0.000564575195,-0.034271240234,-0.008483886719
-0.033340454102,-0.108749389648,0.199920654297,-0.001586914063,-0.027236938477,-0.009246826172
-0.030090332031,-0.117263793945,0.140487670898,-0.004653930664,-0.003646850586,-0.006500244141
-0.056716918945,-0.117340087891,0.114746093750,-0.002517700195,-0.001022338867,-0.006088256836
-0.040130615234,-0.137878417969,0.149185180664,-0.000793457031,-0.007263183594,-0.005310058594
-0.039749145508,-0.144683837891,0.169464111328,0.000442504883,-0.006576538086,-0.003723144531
-0.036972045898,-0.115783691406,0.178512573242,0.003509521484,0.002029418945,0.003738403320
-0.037796020508,-0.090148925781,0.164367675781,0.008911132813,0.007217407227,0.005752563477
-0.032241821289,-0.075195312500,0.118576049805,0.021957397461,0.012344360352,0.000747680664
-0.035018920898,-0.070724487305,0.092010498047,0.025466918945,0.012649536133,-0.002426147461
-0.030792236328,-0.074722290039,0.048171997070,0.032302856445,0.004714965820,-0.008728027344
-0.020904541016,-0.083206176758,0.041748046875,0.032379150391,-0.002517700195,-0.011611938477
-0.009002685547,-0.100479125977,0.046752929688,0.027099609375,-0.015640258789,-0.015029907227
0.000625610352,-0.101104736328,0.055572509766,0.023925781250,-0.020095825195,-0.013961791992
0.007827758789,-0.094253540039,0.088897705078,0.020294189453,-0.024185180664,-0.012069702148
0.020599365234,-0.100051879883,0.105606079102,0.019012451172,-0.023147583008,-0.011474609375
0.033355712891,-0.109588623047,0.110687255859,0.010620117188,-0.012710571289,-0.005828857422
0.036026000977,-0.100097656250,0.093154907227,0.006790161133,-0.006607055664,-0.001953125000
0.038406372070,-0.085861206055,0.081878662109,0.002883911133,-0.000183105469,0.003036499023
0.053756713867,-0.071182250977,0.090866088867,0.000457763672,-0.000503540039,0.002120971680
0.058135986328,-0.067916870117,0.099777221680,0.001876831055,-0.000198364258,0.000335693359
0.059524536133,-0.087860107422,0.091857910156,-0.002136230469,0.005142211914,-0.001052856445
0.060623168945,-0.092422485352,0.086380004883,-0.002334594727,0.006652832031,0.000213623047
0.056640625000,-0.083099365234,0.070297241211,-0.003723144531,0.008453369141,0.004058837891
0.057434082031,-0.074234008789,0.064285278320,-0.005004882813,0.007675170898,0.004867553711
0.055786132813,-0.068954467773,0.065093994141,-0.004257202148,0.002197265625,0.003051757813
0.054153442383,-0.070327758789,0.070678710938,-0.003189086914,-0.000473022461,0.001815795898
0.059173583984,-0.059478759766,0.094802856445,-0.000625610352,-0.004119873047,0.000244140625
0.067520141602,-0.050430297852,0.098205566406,-0.001525878906,-0.003387451172,-0.001296997070
0.074005126953,-0.045028686523,0.095993041992,-0.005447387695,-0.001861572266,-0.006118774414
0.078384399414,-0.038848876953,0.115753173828,-0.006622314453,-0.003295898438,-0.008697509766
0.072372436523,-0.070129394531,0.118164062500,-0.015487670898,0.005157470703,-0.013168334961
0.059829711914,-0.089340209961,0.094909667969,-0.016082763672,0.010833740234,-0.010482788086
0.021713256836,-0.109985351563,0.069137573242,-0.026382446289,0.016128540039,-0.000595092773
0.008819580078,-0.109100341797,0.058456420898,-0.028839111328,0.016998291016,0.005584716797
-0.005813598633,-0.101257324219,0.062408447266,-0.023651123047,0.011428833008,0.015167236328
-0.022872924805,-0.080078125000,0.067871093750,-0.022155761719,0.007781982422,0.018783569336
-0.040557861328,-0.057495117188,0.063125610352,-0.018844604492,0.001647949219,0.019912719727
-0.044265747070,-0.029907226563,0.060287475586,-0.006668090820,-0.003265380859,0.014739990234
-0.048522949219,-0.028884887695,0.067916870117,-0.000595092773,-0.009841918945,0.000244140625
-0.060546875000,-0.052322387695,0.092895507813,0.005004882813,-0.021087646484,-0.005249023438
-0.067840576172,-0.075469970703,0.117080688477,0.007934570313,-0.025848388672,-0.011566162109
-0.071609497070,-0.115539550781,0.175872802734,0.010223388672,-0.028335571289,-0.017898559570
-0.072021484375,-0.133300781250,0.194290161133,0.008697509766,-0.022857666016,-0.017684936523
-0.058807373047,-0.161926269531,0.189407348633,0.004638671875,-0.002685546875,-0.011001586914
-0.056549072266,-0.152160644531,0.150253295898,0.005310058594,0.007690429688,-0.004760742188
-0.052505493164,-0.119934082031,0.095291137695,0.011154174805,0.011947631836,0.002975463867
-0.049026489258,-0.113449096680,0.111434936523,0.011032104492,0.007553100586,0.003646850586
-0.040985107422,-0.097198486328,0.132812500000,0.013183593750,0.005737304688,0.004547119141
-0.041213989258,-0.093032836914,0.123107910156,0.014648437500,0.008712768555,0.003982543945
-0.033752441406,-0.097030639648,0.102203369141,0.016464233398,0.011734008789,0.002792358398
-0.027465820313,-0.098007202148,0.093856811523,0.014953613281,0.011962890625,0.002731323242
-0.026718139648,-0.092880249023,0.085052490234,0.014694213867,0.012420654297,0.004394531250
-0.014526367188,-0.069503784180,0.051788330078,0.012390136719,0.012222290039,0.004211425781
-0.010284423828,-0.064987182617,0.035537719727,0.011535644531,0.010055541992,-0.001846313477
-0.003356933594,-0.066513061523,0.035385131836,0.007919311523,-0.000717163086,-0.004104614258
-0.000473022461,-0.076461791992,0.052307128906,0.007843017578,-0.007217407227,-0.007675170898
0.013183593750,-0.098236083984,0.093307495117,0.008544921875,-0.013427734375,-0.010437011719
0.024017333984,-0.104141235352,0.112594604492,0.007476806641,-0.012054443359,-0.008880615234
0.027877807617,-0.096008300781,0.128524780273,0.003814697266,-0.002731323242,-0.001983642578
0.033081054688,-0.085510253906,0.114608764648,0.001678466797,0.004333496094,0.001510620117
0.029571533203,-0.068756103516,0.084213256836,-0.000732421875,0.011245727539,0.003234863281
0.031982421875,-0.068389892578,0.073074340820,-0.000259399414,0.011352539063,0.001998901367
0.030364990234,-0.078384399414,0.065628051758,0.000213623047,0.007736206055,-0.001541137695
0.029678344727,-0.084976196289,0.070236206055,0.000244140625,0.005767822266,-0.002304077148
0.039978027344,-0.086029052734,0.086730957031,0.001251220703,0.003356933594,-0.000213623047
0.037429809570,-0.080718994141,0.088455200195,0.001586914063,0.003890991211,-0.000152587891
0.033081054688,-0.079284667969,0.074890136719,-0.000747680664,0.006057739258,-0.001480102539
0.022949218750,-0.083923339844,0.068450927734,-0.000213623047,0.005554199219,-0.002395629883
0.031188964844,-0.092880249023,0.069900512695,0.000305175781,0.002975463867,-0.001632690430
0.024734497070,-0.090637207031,0.074142456055,0.000091552734,0.001449584961,-0.002059936523
0.022842407227,-0.090927124023,0.081802368164,0.000686645508,0.000198364258,-0.002120971680
0.017852783203,-0.092483520508,0.082992553711,0.000320434570,0.000656127930,-0.002029418945
0.017669677734,-0.092163085938,0.080841064453,0.000442504883,0.000762939453,-0.001632690430
0.012161254883,-0.095764160156,0.083053588867,0.000274658203,0.000015258789,-0.001632690430
0.009658813477,-0.095474243164,0.081481933594,-0.000244140625,0.000122070313,-0.001296997070
0.011047363281,-0.099014282227,0.080581665039,-0.000289916992,-0.000549316406,-0.000228881836
0.012115478516,-0.096725463867,0.081848144531,0.000244140625,-0.001205444336,0.000534057617
0.008346557617,-0.090087890625,0.087768554688,0.000427246094,-0.001678466797,-0.000198364258
0.008666992188,-0.089767456055,0.092910766602,0.000137329102,-0.001708984375,-0.000625610352
0.008651733398,-0.088943481445,0.088729858398,-0.000335693359,0.000106811523,-0.001098632813
0.007049560547,-0.091369628906,0.083892822266,-0.000473022461,0.000610351563,-0.001358032227
0.003585815430,-0.096038818359,0.082702636719,0.000152587891,-0.000228881836,-0.001327514648
0.003906250000,-0.095687866211,0.087722778320,0.000564575195,-0.000885009766,-0.000991821289
0.005172729492,-0.092422485352,0.090301513672,0.001022338867,-0.000595092773,-0.000244140625
0.004501342773,-0.092010498047,0.086898803711,0.001007080078,-0.000137329102,-0.000122070313
0.003082275391,-0.092117309570,0.086334228516,0.001449584961,-0.000503540039,-0.000167846680
0.002700805664,-0.091003417969,0.087738037109,0.001388549805,-0.000701904297,-0.000167846680
0.003570556641,-0.092544555664,0.089721679688,0.001342773438,-0.000259399414,-0.000778198242
0.003982543945,-0.095901489258,0.084472656250,0.001129150391,0.000106811523,-0.000640869141
0.003448486328,-0.094863891602,0.083038330078,0.001235961914,-0.000015258789,-0.000122070313
0.004455566406,-0.093353271484,0.085952758789,0.001739501953,-0.000625610352,-0.000015258789
0.005187988281,-0.093170166016,0.083770751953,0.001770019531,-0.000610351563,0.000000000000
0.005828857422,-0.091613769531,0.080520629883,0.001602172852,-0.001190185547,-0.000091552734
0.007598876953,-0.090484619141,0.083480834961,0.001113891602,-0.001739501953,-0.000167846680
0.000930786133,-0.097640991211,0.085006713867,0.001510620117,-0.001770019531,-0.000274658203
0.002243041992,-0.099334716797,0.090042114258,0.001968383789,-0.002105712891,-0.000076293945
0.004882812500,-0.090911865234,0.087310791016,0.002365112305,-0.000671386719,0.001281738281
0.003967285156,-0.088562011719,0.082351684570,0.001525878906,0.000122070313,0.000900268555
0.003601074219,-0.094085693359,0.085815429688,0.001144409180,-0.000427246094,-0.000671386719
0.004226684570,-0.096343994141,0.086837768555,0.001068115234,-0.000228881836,-0.000854492188
0.004196166992,-0.092758178711,0.081481933594,0.000457763672,0.000686645508,-0.000442504883
0.003219604492,-0.091567993164,0.080780029297,0.000396728516,0.000442504883,-0.000488281250
0.002700805664,-0.095565795898,0.085693359375,0.000473022461,-0.000213623047,-0.000961303711

0.041900634766,-0.201553344727,-0.068603515625,-0.050079345703,-0.021057128906,-0.029617309570
0.051727294922,-0.233200073242,-0.008529663086,-0.043807983398,-0.028015136719,-0.023651123047
0.053268432617,-0.170074462891,0.038375854492,-0.005798339844,-0.015716552734,0.002685546875
0.050476074219,-0.098342895508,0.001678466797,-0.006195068359,-0.003509521484,0.011413574219
0.034835815430,-0.085891723633,-0.034240722656,-0.006103515625,0.000198364258,0.000762939453
0.027877807617,-0.118804931641,-0.019241333008,-0.004516601563,-0.002822875977,-0.005599975586
0.013702392578,-0.123168945313,-0.006607055664,-0.006515502930,-0.002944946289,-0.005233764648
0.002441406250,-0.112640380859,-0.013565063477,-0.007202148438,-0.001998901367,-0.004287719727
-0.014938354492,-0.121063232422,-0.011428833008,-0.004364013672,-0.004333496094,-0.007080078125
-0.023010253906,-0.120346069336,-0.009643554688,-0.003128051758,-0.004989624023,-0.007110595703
-0.041641235352,-0.110610961914,-0.012161254883,-0.001129150391,-0.003982543945,-0.006896972656
-0.055801391602,-0.113174438477,-0.021255493164,0.002716064453,-0.002914428711,-0.007812500000
-0.079055786133,-0.132537841797,-0.041519165039,0.000625610352,-0.001419067383,-0.007904052734
-0.087631225586,-0.138580322266,-0.038619995117,0.000732421875,-0.002700805664,-0.006454467773
-0.098800659180,-0.134078979492,-0.029983520508,0.000137329102,-0.002838134766,-0.002182006836
-0.102844238281,-0.131103515625,-0.038253784180,-0.000015258789,-0.002044677734,-0.000778198242
-0.102600097656,-0.133270263672,-0.035858154297,-0.000839233398,-0.003890991211,0.001342773438
-0.097549438477,-0.131439208984,-0.022384643555,-0.000717163086,-0.005493164063,0.002746582031
-0.083969116211,-0.134307861328,-0.012130737305,0.000228881836,-0.004653930664,0.004531860352
-0.075790405273,-0.132263183594,-0.010726928711,0.000869750977,-0.003875732422,0.005722045898
-0.056152343750,-0.126037597656,-0.004425048828,0.002136230469,-0.002639770508,0.007659912109
-0.046203613281,-0.125198364258,-0.000854492188,0.002807617188,-0.001617431641,0.008255004883
-0.028549194336,-0.121505737305,-0.008728027344,0.003524780273,0.001312255859,0.009460449219
-0.021942138672,-0.119628906250,-0.014923095703,0.003799438477,0.002151489258,0.009857177734
-0.008102416992,-0.116348266602,-0.022155761719,0.003814697266,0.002182006836,0.010253906250
-0.000625610352,-0.115554809570,-0.019638061523,0.003326416016,0.002044677734,0.010299682617
0.006591796875,-0.119537353516,-0.026245117188,0.001098632813,0.003311157227,0.010314941406
0.024627685547,-0.127227783203,-0.026473999023,0.002609252930,0.003433227539,0.010589599609
0.027709960938,-0.127639770508,-0.019561767578,0.005935668945,0.007095336914,0.014419555664
0.025604248047,-0.130218505859,-0.036483764648,-0.007690429688,0.004516601563,0.016250610352
0.027603149414,-0.134826660156,-0.039260864258,-0.013977050781,0.004104614258,0.018249511719
0.034210205078,-0.134521484375,-0.030517578125,-0.026702880859,0.000549316406,0.024505615234
0.032058715820,-0.128417968750,-0.026458740234,-0.034255981445,-0.000534057617,0.027770996094
0.022750854492,-0.101654052734,-0.030197143555,-0.048599243164,-0.001693725586,0.034835815430
0.012786865234,-0.071090698242,-0.019012451172,-0.058898925781,-0.003585815430,0.036911010742
0.011001586914,-0.019409179688,0.002380371094,-0.071060180664,-0.007247924805,0.033157348633
0.016525268555,-0.010025024414,0.014404296875,-0.071472167969,-0.008590698242,0.025924682617
0.008453369141,-0.028106689453,0.039733886719,-0.065902709961,-0.009979248047,0.007156372070
0.011306762695,-0.042098999023,0.049102783203,-0.062072753906,-0.010681152344,-0.000244140625
-0.000961303711,-0.062927246094,0.071533203125,-0.057464599609,-0.008850097656,-0.009170532227
-0.005996704102,-0.073135375977,0.075286865234,-0.053329467773,-0.005905151367,-0.012588500977
-0.009963989258,-0.100830078125,0.066696166992,-0.043624877930,0.000762939453,-0.018218994141
-0.012878417969,-0.114715576172,0.055923461914,-0.036605834961,0.003173828125,-0.019638061523
-0.019287109375,-0.135787963867,0.038101196289,-0.029541015625,0.005020141602,-0.018829345703
-0.020996093750,-0.139160156250,0.034515380859,-0.026214599609,0.003265380859,-0.016784667969
-0.023834228516,-0.137588500977,0.043655395508,-0.021911621094,-0.001434326172,-0.011337280273
-0.024612426758,-0.125640869141,0.053085327148,-0.018218994141,-0.002685546875,-0.009582519531
-0.025009155273,-0.125503540039,0.058151245117,-0.016662597656,-0.004226684570,-0.009277343750
-0.030059814453,-0.128540039063,0.072937011719,-0.015228271484,-0.005630493164,-0.008392333984
-0.030776977539,-0.112976074219,0.085388183594,-0.028198242188,-0.005203247070,-0.006515502930
-0.026031494141,-0.119155883789,0.085098266602,-0.034439086914,-0.003860473633,-0.005752563477
-0.026596069336,-0.111114501953,0.096633911133,-0.035156250000,-0.004287719727,-0.003768920898
-0.028106689453,-0.103118896484,0.103073120117,-0.032455444336,-0.001892089844,-0.003128051758
-0.026077270508,-0.106521606445,0.098510742188,-0.030471801758,-0.000564575195,-0.003860473633
-0.026550292969,-0.109909057617,0.094787597656,-0.024276733398,-0.000900268555,-0.004531860352
-0.023742675781,-0.110778808594,0.102523803711,-0.021545410156,-0.002426147461,-0.004745483398
-0.020462036133,-0.119125366211,0.117843627930,-0.015945434570,-0.003448486328,-0.005081176758
-0.018859863281,-0.118606567383,0.120300292969,-0.014633178711,-0.002639770508,-0.004135131836
-0.017822265625,-0.120895385742,0.117248535156,-0.011123657227,0.000167846680,-0.003128051758
-0.015213012695,-0.122604370117,0.122894287109,-0.007308959961,0.000671386719,-0.002807617188
-0.011093139648,-0.121505737305,0.111587524414,0.000732421875,0.003051757813,-0.001190185547
-0.009216308594,-0.113876342773,0.104248046875,0.000213623047,0.003662109375,0.000061035156
-0.008056640625,-0.104125976563,0.101867675781,0.000946044922,0.002716064453,0.001296997070
-0.005065917969,-0.099838256836,0.103744506836,0.002105712891,0.002120971680,0.000900268555
-0.004486083984,-0.103805541992,0.103103637695,0.002609252930,0.002227783203,0.001159667969
-0.004776000977,-0.101455688477,0.096206665039,0.003234863281,0.002624511719,0.002212524414
-0.003204345703,-0.096557617188,0.093750000000,0.003662109375,0.002304077148,0.003204345703
-0.003662109375,-0.084640502930,0.093551635742,0.002120971680,0.001480102539,0.004089355469
-0.003753662109,-0.082229614258,0.094467163086,0.002273559570,0.001174926758,0.003799438477
-0.003051757813,-0.080276489258,0.091949462891,0.002700805664,0.001510620117,0.003173828125
-0.004577636719,-0.078338623047,0.088684082031,0.002777099609,0.001846313477,0.003005981445
-0.005920410156,-0.080490112305,0.088211059570,0.007125854492,0.000900268555,0.001663208008
-0.006530761719,-0.089233398438,0.092025756836,0.005172729492,0.000762939453,0.001495361328
-0.006240844727,-0.088638305664,0.092285156250,0.006134033203,0.001129150391,0.001861572266
-0.008102416992,-0.076416015625,0.089370727539,0.005126953125,0.001693725586,0.002563476563
-0.007705688477,-0.076019287109,0.088226318359,0.005218505859,0.001495361328,0.001800537109
-0.009323120117,-0.083923339844,0.087417602539,0.003402709961,0.001068115234,0.000000000000
-0.010696411133,-0.088638305664,0.088104248047,0.002929687500,0.000839233398,-0.000350952148
-0.011627197266,-0.092681884766,0.090820312500,0.003768920898,0.000473022461,0.000137329102
-0.011428833008,-0.092941284180,0.090270996094,0.004501342773,0.000717163086,0.000595092773
-0.011245727539,-0.092575073242,0.088928222656,0.004791259766,0.001251220703,0.001312255859
-0.011215209961,-0.089523315430,0.087875366211,0.005279541016,0.001159667969,0.001541137695
-0.010101318359,-0.089904785156,0.086029052734,0.005462646484,0.001037597656,0.001464843750
-0.009002685547,-0.086654663086,0.084716796875,0.002532958984,0.000595092773,0.001678466797
-0.008590698242,-0.085296630859,0.086090087891,0.002426147461,0.000213623047,0.001388549805
-0.008193969727,-0.088073730469,0.089828491211,0.002883911133,0.000091552734,0.000350952148
-0.007598876953,-0.089797973633,0.088851928711,0.002731323242,0.000473022461,0.000061035156
-0.008789062500,-0.090377807617,0.088455200195,0.002563476563,0.000671386719,0.000289916992
-0.007019042969,-0.089355468750,0.086334228516,0.002746582031,0.000579833984,0.000488281250
-0.006683349609,-0.087890625000,0.086059570313,0.002502441406,0.000396728516,0.000671386719
-0.006759643555,-0.087768554688,0.085815429688,0.002578735352,0.000167846680,0.000259399414
-0.007324218750,-0.089950561523,0.086578369141,0.002746582031,0.000106811523,-0.000152587891
-0.007415771484,-0.093719482422,0.087280273438,0.002426147461,0.000183105469,-0.000503540039
-0.007614135742,-0.093627929688,0.085922241211,0.001800537109,0.000366210937,-0.000167846680
-0.007583618164,-0.093032836914,0.085922241211,0.001388549805,0.000122070313,-0.000045776367
-0.007781982422,-0.093307495117,0.087005615234,0.001388549805,0.000000000000,-0.000076293945
-0.008560180664,-0.094299316406,0.088623046875,0.001510620117,0.000091552734,-0.000305175781
-0.008758544922,-0.097503662109,0.089675903320,0.001724243164,0.000457763672,-0.000198364258
-0.007888793945,-0.098037719727,0.088577270508,0.001602172852,0.000869750977,0.000076293945
-0.007064819336,-0.093231201172,0.086364746094,0.000900268555,0.001129150391,0.000808715820
-0.007049560547,-0.091201782227,0.085876464844,0.000244140625,0.001144409180,0.000900268555
-0.007614135742,-0.093185424805,0.086761474609,0.000991821289,0.000976562500,0.000259399414
-0.007675170898,-0.094787597656,0.087112426758,0.001129150391,0.001052856445,0.000106811523
-0.007644653320,-0.095489501953,0.085769653320,0.000732421875,0.001129150391,0.000396728516

-0.078903198242,-0.104431152344,-0.117965698242,0.004287719727,0.000808715820,-0.012451171875
-0.081817626953,-0.104034423828,-0.108169555664,0.004776000977,-0.000473022461,-0.010162353516
-0.076538085938,-0.102935791016,-0.108200073242,0.008758544922,0.000213623047,-0.006942749023
-0.074554443359,-0.107467651367,-0.108306884766,0.009002685547,0.000259399414,-0.005905151367
-0.065948486328,-0.105224609375,-0.109497070313,0.011108398438,-0.000122070313,-0.001922607422
-0.061553955078,-0.099090576172,-0.109237670898,0.011810302734,-0.000335693359,0.000305175781
-0.053604125977,-0.085144042969,-0.115219116211,0.014068603516,-0.000137329102,0.003829956055
-0.047790527344,-0.078262329102,-0.123229980469,0.016189575195,0.000000000000,0.004974365234
-0.032440185547,-0.067993164063,-0.124816894531,0.019287109375,-0.002441406250,0.006240844727
-0.026168823242,-0.065063476563,-0.120849609375,0.019134521484,-0.003829956055,0.006942749023
-0.015121459961,-0.052810668945,-0.120681762695,0.017654418945,-0.004531860352,0.009704589844
-0.018905639648,-0.087295532227,-0.177032470703,0.014083862305,-0.004287719727,0.010833740234
0.002273559570,0.002868652344,-0.081481933594,0.007858276367,-0.012878417969,0.022628784180
0.012039184570,0.019210815430,-0.073242187500,0.005645751953,-0.009582519531,0.018768310547
0.014083862305,-0.011184692383,-0.107177734375,0.010131835938,-0.000137329102,0.004531860352
0.014190673828,-0.039352416992,-0.139373779297,0.007186889648,-0.002349853516,0.005554199219
0.018508911133,-0.024826049805,-0.119583129883,0.004302978516,-0.005447387695,0.005752563477
0.029083251953,-0.033493041992,-0.109786987305,0.004257202148,-0.004287719727,0.003570556641
0.031799316406,-0.036788940430,-0.115890502930,0.003555297852,-0.002853393555,0.003311157227
0.035278320313,-0.024337768555,-0.115325927734,0.000717163086,-0.002426147461,0.002975463867
0.036270141602,-0.022552490234,-0.114364624023,0.000183105469,-0.002182006836,0.001556396484
0.039749145508,-0.031814575195,-0.104827880859,-0.000045776367,-0.001663208008,-0.001800537109
0.039123535156,-0.035766601563,-0.099273681641,-0.000427246094,-0.000900268555,-0.002746582031
0.031188964844,-0.030685424805,-0.110763549805,-0.001083374023,0.002365112305,-0.003906250000
0.026977539063,-0.030395507813,-0.115432739258,-0.001220703125,0.002731323242,-0.005233764648
0.021667480469,-0.044540405273,-0.104324340820,-0.001647949219,0.001785278320,-0.008224487305
0.017852783203,-0.051132202148,-0.098770141602,-0.002182006836,0.002334594727,-0.008422851563
0.004226684570,-0.055480957031,-0.108078002930,-0.003280639648,0.005157470703,-0.007064819336
-0.002151489258,-0.050689697266,-0.114730834961,-0.003646850586,0.005859375000,-0.006179809570
-0.012512207031,-0.045684814453,-0.117279052734,-0.003616333008,0.005233764648,-0.006408691406
-0.016906738281,-0.047348022461,-0.116622924805,-0.003433227539,0.004943847656,-0.006866455078
-0.024078369141,-0.049865722656,-0.119079589844,-0.003173828125,0.005004882813,-0.007095336914
-0.027221679688,-0.050491333008,-0.117828369141,-0.002807617188,0.004684448242,-0.007064819336
-0.032379150391,-0.049041748047,-0.121322631836,-0.002197265625,0.004608154297,-0.006927490234
-0.034408569336,-0.052932739258,-0.120758056641,-0.002182006836,0.004226684570,-0.007232666016
-0.037322998047,-0.063613891602,-0.115676879883,-0.002151489258,0.003524780273,-0.007064819336
-0.037811279297,-0.065658569336,-0.115356445313,-0.001800537109,0.003601074219,-0.006362915039
-0.037200927734,-0.067687988281,-0.117004394531,-0.001220703125,0.003646850586,-0.004898071289
-0.036666870117,-0.068618774414,-0.114501953125,-0.001113891602,0.003326416016,-0.004318237305
-0.039306640625,-0.071258544922,-0.114379882813,-0.000869750977,0.003448486328,-0.002960205078
-0.040512084961,-0.071777343750,-0.119049072266,-0.000640869141,0.003753662109,-0.002059936523
-0.037734985352,-0.068679809570,-0.118301391602,-0.000991821289,0.002716064453,0.000152587891
-0.035736083984,-0.064575195313,-0.115371704102,-0.001281738281,0.002288818359,0.001251220703
-0.035552978516,-0.059036254883,-0.123931884766,-0.001403808594,0.002563476563,0.001907348633
-0.034484863281,-0.058609008789,-0.129455566406,-0.001617431641,0.002014160156,0.001800537109
-0.031234741211,-0.058013916016,-0.130264282227,-0.002777099609,-0.000930786133,0.001724243164
-0.026412963867,-0.058212280273,-0.126373291016,-0.003555297852,-0.002609252930,0.001632690430
-0.018142700195,-0.059631347656,-0.113952636719,-0.006164550781,-0.005111694336,0.002014160156
-0.014160156250,-0.059188842773,-0.107482910156,-0.007797241211,-0.005676269531,0.002639770508
-0.010482788086,-0.056045532227,-0.105178833008,-0.011184692383,-0.004959106445,0.003890991211
-0.009490966797,-0.055999755859,-0.108261108398,-0.013092041016,-0.004531860352,0.003906250000
-0.004714965820,-0.057312011719,-0.107284545898,-0.017990112305,-0.005950927734,0.003295898438
-0.002456665039,-0.056396484375,-0.102890014648,-0.021255493164,-0.007003784180,0.002853393555
0.002639770508,-0.058715820313,-0.088638305664,-0.029479980469,-0.009155273438,0.001235961914
0.006179809570,-0.060302734375,-0.079269409180,-0.033828735352,-0.009887695313,0.000411987305
0.009521484375,-0.063934326172,-0.066055297852,-0.042541503906,-0.009796142578,-0.001449584961
0.009689331055,-0.065582275391,-0.059844970703,-0.047988891602,-0.009674072266,-0.002471923828
0.009323120117,-0.075592041016,-0.048736572266,-0.053939819336,-0.010009765625,-0.004547119141
0.004562377930,-0.078887939453,-0.034439086914,-0.056259155273,-0.009826660156,-0.004913330078
-0.003570556641,-0.088348388672,-0.025070190430,-0.053695678711,-0.006286621094,-0.004974365234
-0.006820678711,-0.095748901367,-0.025344848633,-0.050018310547,-0.003280639648,-0.005157470703
-0.012176513672,-0.108978271484,-0.028625488281,-0.048217773438,0.003143310547,-0.003311157227
-0.013839721680,-0.111053466797,-0.032028198242,-0.047332763672,0.006515502930,-0.001266479492
-0.017028808594,-0.111373901367,-0.039031982422,-0.053054809570,0.013107299805,0.002655029297
-0.020248413086,-0.112915039063,-0.049011230469,-0.054229736328,0.016662597656,0.003738403320
-0.017730712891,-0.114639282227,-0.063751220703,-0.052398681641,0.019012451172,0.004547119141
-0.022293090820,-0.118652343750,-0.057662963867,-0.056610107422,0.018310546875,0.004943847656
-0.017669677734,-0.115554809570,-0.066177368164,-0.057571411133,0.019577026367,0.003768920898
-0.016311645508,-0.115737915039,-0.068923950195,-0.050735473633,0.017257690430,0.002349853516
-0.016983032227,-0.118225097656,-0.047058105469,-0.062133789063,0.011047363281,-0.000106811523
-0.017623901367,-0.120712280273,-0.034515380859,-0.067016601563,0.008758544922,-0.001388549805
-0.018218994141,-0.128952026367,-0.015365600586,-0.068435668945,0.005874633789,-0.004562377930
-0.019485473633,-0.133148193359,-0.005722045898,-0.067520141602,0.004302978516,-0.005325317383
-0.015975952148,-0.123870849609,0.020126342773,-0.068908691406,0.001632690430,-0.003524780273
-0.015029907227,-0.114990234375,0.036209106445,-0.068283081055,0.001708984375,-0.002838134766
-0.013992309570,-0.109054565430,0.041778564453,-0.056365966797,0.005828857422,-0.005035400391
-0.020095825195,-0.109878540039,0.039886474609,-0.057693481445,0.008117675781,-0.006317138672
-0.023437500000,-0.121612548828,0.041778564453,-0.062484741211,0.009429931641,-0.009155273438
-0.026809692383,-0.129302978516,0.046188354492,-0.061874389648,0.008758544922,-0.009582519531
-0.028686523438,-0.137588500977,0.059127807617,-0.060043334961,0.006134033203,-0.007110595703
-0.028793334961,-0.133377075195,0.064727783203,-0.057144165039,0.005035400391,-0.004333496094
-0.024887084961,-0.111602783203,0.073272705078,-0.051712036133,0.004318237305,0.000946044922
-0.025436401367,-0.099670410156,0.076553344727,-0.043991088867,0.004241943359,0.001571655273
-0.021820068359,-0.089462280273,0.080871582031,-0.028656005859,0.003540039063,-0.001449584961
-0.022506713867,-0.093414306641,0.086013793945,-0.024566650391,0.003128051758,-0.004089355469
-0.020751953125,-0.098892211914,0.086990356445,-0.016616821289,0.003875732422,-0.007751464844
-0.019363403320,-0.101669311523,0.084838867188,-0.013397216797,0.004074096680,-0.009201049805
-0.021499633789,-0.116424560547,0.087799072266,-0.011199951172,0.003250122070,-0.012054443359
-0.022277832031,-0.124923706055,0.091964721680,-0.009918212891,0.002593994141,-0.012817382813
-0.022384643555,-0.134552001953,0.092361450195,-0.006149291992,0.002304077148,-0.011718750000
-0.023910522461,-0.136734008789,0.090637207031,-0.004074096680,0.001968383789,-0.010620117188
-0.023696899414,-0.132614135742,0.095764160156,-0.004302978516,0.000381469727,-0.007598876953
-0.020874023438,-0.130111694336,0.097122192383,-0.004562377930,0.000122070313,-0.006118774414
-0.020263671875,-0.117355346680,0.094970703125,-0.008911132813,-0.000030517578,-0.003067016602
-0.020462036133,-0.118927001953,0.094116210938,-0.015533447266,-0.000167846680,-0.002120971680
-0.019470214844,-0.116165161133,0.109207153320,-0.010345458984,-0.003601074219,-0.000595092773
-0.019210815430,-0.108917236328,0.121612548828,-0.000045776367,-0.002990722656,0.000732421875
-0.018051147461,-0.113479614258,0.107894897461,-0.000457763672,0.002212524414,0.001113891602
-0.018585205078,-0.110427856445,0.091781616211,-0.000946044922,0.003952026367,0.002517700195
-0.017761230469,-0.083145141602,0.083267211914,0.000045776367,0.001602172852,0.005661010742
-0.014846801758,-0.078353881836,0.084762573242,0.000579833984,-0.000213623047,0.004776000977
-0.014770507813,-0.079467773438,0.086883544922,-0.000717163086,-0.002334594727,0.002441406250
-0.018280029297,-0.081146240234,0.092544555664,-0.000839233398,-0.003067016602,0.002212524414
-0.018234252930,-0.079513549805,0.095169067383,0.000946044922,-0.003631591797,0.001724243164

-0.094421386719,-0.069610595703,-0.140655517578,-0.005325317383,0.008499145508,-0.003341674805
-0.101119995117,-0.065765380859,-0.145034790039,-0.004669189453,0.006088256836,-0.002517700195
-0.099884033203,-0.066085815430,-0.147872924805,-0.001541137695,0.000396728516,-0.003051757813
-0.096710205078,-0.081192016602,-0.135025024414,-0.000396728516,-0.002868652344,-0.003860473633
-0.083923339844,-0.087005615234,-0.122894287109,0.000701904297,-0.004653930664,0.000015258789
-0.076583862305,-0.078903198242,-0.129135131836,0.001174926758,-0.004348754883,0.002441406250
-0.062500000000,-0.077575683594,-0.123367309570,0.002136230469,-0.006622314453,0.004516601563
-0.054534912109,-0.075073242188,-0.120834350586,0.002410888672,-0.007369995117,0.005752563477
-0.035537719727,-0.065719604492,-0.113281250000,0.003250122070,-0.008789062500,0.007781982422
-0.026062011719,-0.062438964844,-0.106155395508,0.003799438477,-0.009262084961,0.008270263672
-0.011001586914,-0.060119628906,-0.102935791016,0.004943847656,-0.007934570313,0.009002685547
-0.005569458008,-0.056121826172,-0.105056762695,0.004837036133,-0.007034301758,0.009887695313
0.003433227539,-0.043777465820,-0.104263305664,0.004638671875,-0.005737304688,0.011291503906
0.008239746094,-0.037811279297,-0.106338500977,0.004638671875,-0.004867553711,0.011413574219
0.012695312500,-0.032714843750,-0.117477416992,0.004058837891,-0.003494262695,0.010177612305
0.021331787109,-0.028244018555,-0.115356445313,0.003417968750,-0.004150390625,0.009002685547
0.027954101563,-0.029144287109,-0.109024047852,0.002639770508,-0.004257202148,0.006225585938
0.035705566406,-0.034255981445,-0.107009887695,0.002456665039,-0.003311157227,0.004959106445
0.037277221680,-0.037246704102,-0.106491088867,0.002029418945,-0.002319335938,0.003417968750
0.040176391602,-0.034027099609,-0.102966308594,0.000579833984,-0.001632690430,0.002899169922
0.039031982422,-0.030151367188,-0.105484008789,-0.000106811523,-0.000885009766,0.001907348633
0.037277221680,-0.041900634766,-0.109588623047,-0.001296997070,-0.000411987305,-0.001754760742
0.040985107422,-0.056045532227,-0.101440429688,-0.002777099609,-0.000915527344,-0.002929687500
0.036773681641,-0.063293457031,-0.102615356445,-0.008682250977,0.000549316406,-0.001327514648
0.030410766602,-0.054382324219,-0.105941772461,-0.013214111328,0.000946044922,-0.000259399414
0.015808105469,-0.055480957031,-0.108673095703,-0.020812988281,-0.000396728516,-0.002014160156
0.014572143555,-0.059570312500,-0.112319946289,-0.024139404297,-0.001403808594,-0.003082275391
0.005813598633,-0.052673339844,-0.097961425781,-0.034698486328,-0.003921508789,-0.003631591797
0.001037597656,-0.048309326172,-0.093521118164,-0.040771484375,-0.004486083984,-0.004028320313
-0.008026123047,-0.050292968750,-0.083984375000,-0.050949096680,-0.006286621094,-0.006896972656
-0.011505126953,-0.057540893555,-0.077087402344,-0.056808471680,-0.007217407227,-0.008438110352
-0.023147583008,-0.076889038086,-0.065536499023,-0.067001342773,-0.008316040039,-0.010467529297
-0.027587890625,-0.086791992188,-0.061782836914,-0.070205688477,-0.008880615234,-0.010375976563
-0.030822753906,-0.105514526367,-0.049819946289,-0.071609497070,-0.010940551758,-0.007781982422
-0.033233642578,-0.110824584961,-0.040359497070,-0.070648193359,-0.011611938477,-0.005355834961
-0.031921386719,-0.110885620117,-0.021026611328,-0.064880371094,-0.009796142578,-0.000366210937
-0.030990600586,-0.108993530273,-0.015579223633,-0.059524536133,-0.006790161133,0.001296997070
-0.027801513672,-0.110473632813,-0.011322021484,-0.048614501953,-0.000717163086,0.002349853516
-0.028839111328,-0.110137939453,-0.002822875977,-0.048416137695,0.001037597656,0.002746582031
-0.028579711914,-0.104156494141,0.013137817383,-0.049240112305,0.005142211914,0.003143310547
-0.030548095703,-0.105545043945,0.010513305664,-0.047134399414,0.009033203125,0.002273559570
-0.033538818359,-0.115127563477,-0.013763427734,-0.038085937500,0.016906738281,-0.000167846680
-0.035125732422,-0.120147705078,-0.025604248047,-0.033798217773,0.018356323242,-0.000885009766
-0.038543701172,-0.121231079102,-0.036102294922,-0.024948120117,0.016723632813,-0.000900268555
-0.034133911133,-0.127853393555,-0.041305541992,-0.024566650391,0.015563964844,-0.001007080078
-0.035781860352,-0.130767822266,-0.025085449219,-0.046615600586,0.017288208008,-0.000823974609
-0.032882690430,-0.136856079102,-0.039382934570,-0.034088134766,0.017440795898,-0.002029418945
-0.025741577148,-0.142364501953,-0.028366088867,-0.032653808594,0.013153076172,-0.002243041992
-0.025283813477,-0.145477294922,-0.024749755859,-0.033691406250,0.012405395508,-0.001953125000
-0.024475097656,-0.146102905273,-0.011093139648,-0.038421630859,0.010879516602,-0.001144409180
-0.020660400391,-0.144546508789,-0.006286621094,-0.038101196289,0.010513305664,-0.001174926758
-0.016433715820,-0.146148681641,-0.003082275391,-0.037246704102,0.010452270508,-0.001968383789
-0.014251708984,-0.148437500000,-0.004714965820,-0.036849975586,0.010101318359,-0.002349853516
-0.013305664063,-0.152877807617,0.005264282227,-0.035644531250,0.007217407227,-0.002716064453
-0.014328002930,-0.154586791992,0.011352539063,-0.034912109375,0.005950927734,-0.002120971680
-0.012939453125,-0.158782958984,0.024078369141,-0.034011840820,0.003280639648,-0.001419067383
-0.011459350586,-0.158386230469,0.029632568359,-0.027770996094,0.002410888672,-0.000915527344
-0.005615234375,-0.154983520508,0.038177490234,-0.025543212891,0.002410888672,0.000289916992
-0.005996704102,-0.154983520508,0.047119140625,-0.027603149414,0.002914428711,0.000564575195
-0.004882812500,-0.158615112305,0.049377441406,-0.022232055664,0.005538940430,0.000442504883
-0.004196166992,-0.157440185547,0.047973632813,-0.019332885742,0.006515502930,0.000930786133
-0.002212524414,-0.151580810547,0.045318603516,-0.014663696289,0.006591796875,0.002182006836
-0.001678466797,-0.146804809570,0.046844482422,-0.013595581055,0.005966186523,0.002777099609
0.001510620117,-0.135269165039,0.049545288086,-0.009460449219,0.004348754883,0.003295898438
0.001373291016,-0.132385253906,0.050247192383,-0.007308959961,0.003768920898,0.002746582031
0.002563476563,-0.130691528320,0.051452636719,-0.003463745117,0.002304077148,0.001876831055
0.003967285156,-0.128509521484,0.055892944336,-0.002639770508,0.001708984375,0.001800537109
0.004501342773,-0.125274658203,0.058792114258,-0.002441406250,0.001358032227,0.001968383789
0.005996704102,-0.121185302734,0.058700561523,-0.001403808594,0.001632690430,0.002059936523
0.006210327148,-0.118743896484,0.055099487305,-0.001693725586,0.002014160156,0.002059936523
0.005584716797,-0.115859985352,0.049728393555,-0.002227783203,0.001419067383,0.001373291016
0.004425048828,-0.117034912109,0.049987792969,-0.001403808594,0.000549316406,0.000686645508
0.002105712891,-0.120758056641,0.053512573242,-0.000106811523,-0.000854492188,0.000259399414
0.002288818359,-0.119537353516,0.054840087891,0.000244140625,-0.001251220703,0.000686645508
0.001098632813,-0.112380981445,0.053329467773,0.000106811523,-0.001449584961,0.001419067383
-0.000320434570,-0.109756469727,0.052963256836,0.000091552734,-0.001678466797,0.001373291016
-0.002441406250,-0.109863281250,0.052780151367,0.001205444336,-0.002502441406,0.000350952148
-0.001953125000,-0.107162475586,0.058227539063,0.001510620117,-0.003479003906,0.000411987305
-0.001815795898,-0.106597900391,0.060470581055,0.000762939453,-0.002502441406,-0.000518798828
-0.005722045898,-0.110198974609,0.057205200195,0.000762939453,-0.002258300781,-0.000946044922
-0.005554199219,-0.111022949219,0.060577392578,-0.000061035156,-0.001876831055,-0.000549316406
-0.005859375000,-0.107803344727,0.057113647461,-0.000579833984,-0.001327514648,-0.000335693359
-0.007476806641,-0.106552124023,0.055023193359,-0.000671386719,-0.001129150391,-0.000808715820
-0.008544921875,-0.110855102539,0.055587768555,0.000534057617,-0.001358032227,-0.001113891602
-0.008819580078,-0.112915039063,0.055953979492,0.001022338867,-0.001327514648,-0.000915527344
-0.008850097656,-0.111511230469,0.055053710938,0.000671386719,-0.001159667969,-0.000640869141
-0.008728027344,-0.111389160156,0.052978515625,0.000823974609,-0.001052856445,-0.000808715820
-0.008605957031,-0.107879638672,0.054260253906,0.000015258789,-0.001419067383,-0.000991821289
-0.008468627930,-0.105957031250,0.054367065430,-0.000137329102,-0.001480102539,-0.001358032227
-0.007949829102,-0.105743408203,0.053161621094,-0.001373291016,-0.001296997070,-0.002548217773
-0.007858276367,-0.108825683594,0.052200317383,-0.001510620117,-0.001388549805,-0.003311157227
-0.008453369141,-0.115722656250,0.053543090820,-0.000854492188,-0.001861572266,-0.003967285156
-0.010696411133,-0.117019653320,0.055740356445,-0.000381469727,-0.002075195313,-0.003601074219
-0.013214111328,-0.120788574219,0.058776855469,0.000259399414,-0.002166748047,-0.002761840820
-0.012527465820,-0.121734619141,0.060317993164,0.000762939453,-0.002182006836,-0.002044677734
-0.011505126953,-0.111297607422,0.061203002930,-0.000564575195,-0.001632690430,-0.000198364258
-0.010726928711,-0.109100341797,0.059936523438,-0.000823974609,-0.001113891602,-0.000320434570
-0.010650634766,-0.111785888672,0.056610107422,-0.000625610352,-0.000717163086,-0.001159667969
-0.012435913086,-0.113128662109,0.059158325195,-0.001113891602,-0.000808715820,-0.001235961914
-0.013000488281,-0.117904663086,0.065917968750,-0.000747680664,-0.000961303711,-0.001205444336
-0.011444091797,-0.117156982422,0.067810058594,-0.000503540039,-0.000534057617,-0.000717163086
-0.011444091797,-0.111923217773,0.055831909180,-0.001296997070,0.001693725586,0.000274658203
-0.011276245117,-0.111434936523,0.053314208984,-0.000762939453,0.001266479492,0.000167846680
-0.011032104492,-0.114669799805,0.059265136719,0.000686645508,-0.000289916992,-0.000167846680

-0.091369628906,-0.086334228516,-0.138549804688,-0.011184692383,0.013519287109,-0.013580322266
-0.096588134766,-0.095336914063,-0.132858276367,-0.009597778320,0.010620117188,-0.010772705078
-0.101806640625,-0.089141845703,-0.127792358398,-0.005920410156,0.006881713867,-0.003524780273
-0.103149414063,-0.079940795898,-0.134475708008,-0.004409790039,0.005767822266,-0.001144409180
-0.100738525391,-0.078643798828,-0.140060424805,-0.001525878906,0.000564575195,-0.000488281250
-0.092864990234,-0.085433959961,-0.132843017578,-0.000427246094,-0.002670288086,-0.000534057617
-0.078506469727,-0.091629028320,-0.111495971680,0.000473022461,-0.006561279297,0.001892089844
-0.070480346680,-0.084014892578,-0.114120483398,0.001388549805,-0.006210327148,0.004119873047
-0.053634643555,-0.070587158203,-0.112655639648,0.003036499023,-0.007232666016,0.006423950195
-0.044250488281,-0.069183349609,-0.103836059570,0.003890991211,-0.007934570313,0.006713867188
-0.035583496094,-0.058990478516,-0.109817504883,0.005752563477,-0.006301879883,0.007720947266
-0.019256591797,-0.057052612305,-0.114929199219,0.006378173828,-0.006072998047,0.007904052734
-0.011215209961,-0.053115844727,-0.112167358398,0.006637573242,-0.007080078125,0.007461547852
0.002868652344,-0.045150756836,-0.105285644531,0.006500244141,-0.006530761719,0.007202148438
0.008987426758,-0.041183471680,-0.108276367188,0.006088256836,-0.004913330078,0.006042480469
0.017135620117,-0.038513183594,-0.109115600586,0.005722045898,-0.004562377930,0.005111694336
0.021682739258,-0.038925170898,-0.108200073242,0.005462646484,-0.000213623047,0.003631591797
0.026550292969,-0.036651611328,-0.103546142578,0.003433227539,-0.002532958984,0.003082275391
0.025100708008,-0.037918090820,-0.103073120117,0.002334594727,-0.001296997070,0.002395629883
0.019042968750,-0.043823242188,-0.102554321289,0.000610351563,0.001235961914,0.001296997070
0.011627197266,-0.042221069336,-0.107666015625,0.000213623047,0.002655029297,0.001037597656
-0.000823974609,-0.044937133789,-0.121917724609,0.000244140625,0.003829956055,-0.000656127930
-0.007949829102,-0.048950195313,-0.122268676758,0.000015258789,0.003067016602,-0.001403808594
-0.016983032227,-0.054107666016,-0.125152587891,0.000137329102,0.001968383789,-0.002243041992
-0.018371582031,-0.058639526367,-0.123077392578,0.000228881836,0.001068115234,-0.002548217773
-0.022857666016,-0.058944702148,-0.117889404297,0.000137329102,0.000259399414,-0.001831054688
-0.024505615234,-0.054183959961,-0.124511718750,0.000228881836,0.000549316406,-0.001388549805
-0.025497436523,-0.059066772461,-0.119491577148,0.000396728516,-0.000991821289,-0.002029418945
-0.024993896484,-0.061614990234,-0.114318847656,0.000335693359,-0.001296997070,-0.001800537109
-0.025085449219,-0.056640625000,-0.118881225586,0.000198364258,-0.000595092773,-0.000701904297
-0.025024414063,-0.057846069336,-0.119796752930,0.000274658203,-0.000793457031,-0.000671386719
-0.021682739258,-0.057418823242,-0.115325927734,0.000274658203,-0.001449584961,-0.000289916992
-0.019393920898,-0.056182861328,-0.113311767578,0.000244140625,-0.001495361328,-0.000122070313
-0.017578125000,-0.058166503906,-0.112533569336,0.000427246094,-0.001159667969,-0.000152587891
-0.016418457031,-0.056472778320,-0.114608764648,0.000473022461,-0.000900268555,0.000198364258
-0.013626098633,-0.054107666016,-0.110916137695,0.000366210937,-0.000991821289,0.000320434570
-0.012847900391,-0.053314208984,-0.109725952148,0.000396728516,-0.000671386719,0.000259399414
-0.011947631836,-0.050811767578,-0.114562988281,0.000717163086,0.000228881836,-0.000076293945
-0.011718750000,-0.052719116211,-0.113357543945,0.000839233398,0.000183105469,-0.000595092773
-0.011383056641,-0.054626464844,-0.111099243164,0.000808715820,0.000640869141,-0.000732421875
-0.012634277344,-0.054992675781,-0.114120483398,0.000854492188,0.001205444336,-0.000671386719
-0.013565063477,-0.054168701172,-0.115951538086,0.000625610352,0.001159667969,-0.000488281250
-0.015441894531,-0.053466796875,-0.114471435547,0.000488281250,0.001052856445,-0.000488281250
-0.016601562500,-0.054458618164,-0.117126464844,0.000610351563,0.001312255859,-0.000823974609
-0.017730712891,-0.055435180664,-0.117156982422,0.000549316406,0.001266479492,-0.000869750977
-0.017929077148,-0.056274414063,-0.116561889648,0.000366210937,0.001113891602,-0.000656127930
-0.018508911133,-0.056472778320,-0.117233276367,0.000335693359,0.001144409180,-0.000442504883
-0.017944335938,-0.057281494141,-0.117568969727,0.000289916992,0.001037597656,-0.000030517578
-0.017868041992,-0.056716918945,-0.119308471680,-0.000030517578,0.000900268555,0.000152587891
-0.018539428711,-0.055679321289,-0.117706298828,-0.000167846680,0.000488281250,0.000320434570
-0.017318725586,-0.054473876953,-0.117645263672,-0.000442504883,0.000274658203,0.000473022461
-0.016510009766,-0.053985595703,-0.121200561523,-0.000030517578,0.000274658203,0.000259399414
-0.013732910156,-0.052795410156,-0.112655639648,-0.000320434570,-0.001022338867,-0.000122070313
-0.013275146484,-0.053756713867,-0.109817504883,-0.000335693359,-0.000915527344,-0.000442504883
-0.013122558594,-0.056076049805,-0.114105224609,-0.000030517578,0.000076293945,-0.000717163086
-0.013626098633,-0.055816650391,-0.116897583008,-0.000167846680,0.000106811523,-0.000595092773
-0.012054443359,-0.054107666016,-0.113433837891,-0.000961303711,-0.000579833984,-0.000396728516
-0.011901855469,-0.057449340820,-0.111312866211,-0.000991821289,-0.000717163086,-0.000701904297
-0.012664794922,-0.058319091797,-0.115325927734,-0.001052856445,-0.000183105469,-0.000442504883
-0.013153076172,-0.057098388672,-0.116912841797,-0.001296997070,-0.000350952148,-0.000228881836
-0.009902954102,-0.054962158203,-0.115982055664,-0.001892089844,-0.001434326172,-0.000610351563
-0.007339477539,-0.052444458008,-0.113555908203,-0.002578735352,-0.002105712891,-0.001068115234
-0.007202148438,-0.048355102539,-0.107742309570,-0.004562377930,-0.003509521484,-0.003128051758
-0.009521484375,-0.051208496094,-0.106353759766,-0.005355834961,-0.003829956055,-0.006042480469
-0.008483886719,-0.060668945313,-0.114044189453,-0.006698608398,-0.003677368164,-0.006622314453
-0.005844116211,-0.060302734375,-0.111694335938,-0.008438110352,-0.005783081055,-0.005096435547
-0.003295898438,-0.058959960938,-0.097732543945,-0.014862060547,-0.006134033203,-0.004379272461
-0.000686645508,-0.059646606445,-0.091201782227,-0.017868041992,-0.005737304688,-0.003280639648
0.001876831055,-0.062759399414,-0.083969116211,-0.023803710938,-0.003417968750,-0.002838134766
0.000747680664,-0.063980102539,-0.082809448242,-0.028198242188,-0.002151489258,-0.002288818359
-0.004318237305,-0.062622070313,-0.086593627930,-0.032806396484,-0.001098632813,-0.001556396484
-0.006713867188,-0.064437866211,-0.086685180664,-0.033432006836,-0.001342773438,-0.002151489258
-0.005584716797,-0.070983886719,-0.081359863281,-0.033615112305,-0.003295898438,-0.003616333008
-0.005294799805,-0.073806762695,-0.073760986328,-0.034774780273,-0.004333496094,-0.003738403320
-0.005798339844,-0.076889038086,-0.062454223633,-0.035568237305,-0.004089355469,-0.003509521484
-0.005798339844,-0.077804565430,-0.057312011719,-0.036651611328,-0.001586914063,-0.002914428711
-0.010162353516,-0.083236694336,-0.052932739258,-0.040084838867,0.000152587891,-0.002868652344
-0.012298583984,-0.086990356445,-0.051391601563,-0.041763305664,0.001937866211,-0.002639770508
-0.021057128906,-0.090896606445,-0.044494628906,-0.045486450195,0.004760742188,-0.002578735352
-0.025146484375,-0.093841552734,-0.045410156250,-0.045379638672,0.006652832031,-0.002716064453
-0.029312133789,-0.099441528320,-0.047012329102,-0.044876098633,0.009185791016,-0.003051757813
-0.028030395508,-0.102066040039,-0.045608520508,-0.046142578125,0.009109497070,-0.003082275391
-0.029327392578,-0.103424072266,-0.040832519531,-0.049072265625,0.009323120117,-0.002243041992
-0.029296875000,-0.102508544922,-0.040603637695,-0.050827026367,0.009658813477,-0.001739501953
-0.039794921875,-0.103851318359,-0.027481079102,-0.075195312500,0.010360717773,-0.001754760742
-0.044555664063,-0.114822387695,-0.027023315430,-0.090087890625,0.012863159180,-0.003417968750
-0.040863037109,-0.134582519531,-0.029113769531,-0.080795288086,0.009643554688,-0.005020141602
-0.040267944336,-0.138122558594,-0.010131835938,-0.088973999023,0.006683349609,-0.002914428711
-0.036544799805,-0.128723144531,0.017471313477,-0.084548950195,0.006027221680,0.000335693359
-0.035873413086,-0.120056152344,0.024612426758,-0.078552246094,0.007293701172,0.000930786133
-0.036926269531,-0.127517700195,0.027343750000,-0.067901611328,0.009521484375,-0.002136230469
-0.038101196289,-0.130676269531,0.029281616211,-0.063507080078,0.009552001953,-0.002914428711
-0.039886474609,-0.136383056641,0.037155151367,-0.061141967773,0.008560180664,-0.003799438477
-0.037826538086,-0.136856079102,0.044342041016,-0.059097290039,0.007278442383,-0.003814697266
-0.035278320313,-0.128067016602,0.061050415039,-0.054306030273,0.006454467773,-0.003234863281
-0.031967163086,-0.129653930664,0.062210083008,-0.052291870117,0.006942749023,-0.003662109375
-0.034362792969,-0.123336791992,0.063949584961,-0.048767089844,0.007949829102,-0.004165649414
-0.033126831055,-0.120697021484,0.063705444336,-0.045333862305,0.007110595703,-0.004837036133
-0.027282714844,-0.106460571289,0.069198608398,-0.038223266602,0.003829956055,-0.004699707031
-0.025100708008,-0.099533081055,0.072067260742,-0.035278320313,0.002944946289,-0.005447387695
-0.027694702148,-0.119216918945,0.079574584961,-0.029678344727,0.001541137695,-0.010559082031
-0.029403686523,-0.131088256836,0.083679199219,-0.024780273438,0.000839233398,-0.011886596680
-0.028076171875,-0.137115478516,0.097427368164,-0.015426635742,0.000167846680,-0.010391235352
-0.027999877930,-0.139556884766,0.097488403320,-0.010208129883,0.001113891602,-0.009429931641

-0.051910400391,-0.222579956055,0.029006958008,0.032974243164,-0.028686523438,-0.004241943359
-0.052688598633,-0.209182739258,0.049713134766,0.032424926758,-0.032577514648,0.002212524414
-0.065200805664,-0.192123413086,0.070587158203,0.041015625000,-0.032974243164,0.006042480469
-0.060714721680,-0.182403564453,0.075744628906,0.048278808594,-0.031463623047,0.006072998047
-0.070846557617,-0.176422119141,0.065887451172,0.065338134766,-0.025909423828,0.003372192383
-0.071075439453,-0.172271728516,0.059387207031,0.068618774414,-0.023117065430,0.002120971680
-0.080993652344,-0.169128417969,0.036575317383,0.072113037109,-0.016098022461,-0.000122070313
-0.085464477539,-0.167922973633,0.021255493164,0.078460693359,-0.013305664063,-0.001419067383
-0.096115112305,-0.181106567383,-0.011947631836,0.095336914063,-0.009902954102,-0.004165649414
-0.106185913086,-0.173156738281,-0.024139404297,0.104248046875,-0.009994506836,-0.002761840820
-0.099090576172,-0.136795043945,-0.029357910156,0.104202270508,-0.011398315430,0.004974365234
-0.085876464844,-0.129333496094,-0.024230957031,0.103576660156,-0.012283325195,0.008209228516
-0.089248657227,-0.115859985352,-0.011169433594,0.096542358398,-0.011337280273,0.013656616211
-0.087310791016,-0.137680053711,-0.010452270508,0.084518432617,-0.009185791016,0.016754150391
-0.081329345703,-0.147003173828,-0.005996704102,0.054656982422,-0.004318237305,0.028488159180
-0.060089111328,-0.108932495117,-0.007064819336,0.048004150391,-0.001861572266,0.038299560547
-0.049438476563,-0.060485839844,-0.014053344727,0.035614013672,0.003555297852,0.041656494141
-0.042816162109,-0.023773193359,-0.058334350586,0.034866333008,0.003524780273,0.033157348633
-0.042892456055,-0.042327880859,-0.076248168945,0.032730102539,-0.003433227539,0.014373779297
-0.033721923828,-0.098281860352,-0.071899414063,0.026565551758,-0.008575439453,0.011856079102
-0.026458740234,-0.093948364258,-0.063522338867,0.022918701172,-0.015625000000,0.018173217773
-0.013977050781,-0.062164306641,-0.055023193359,0.020233154297,-0.014007568359,0.018936157227
-0.009231567383,-0.058639526367,-0.049285888672,0.020217895508,-0.014343261719,0.017227172852
0.008239746094,-0.053802490234,-0.043060302734,0.019927978516,-0.012161254883,0.012237548828
0.007888793945,-0.065277099609,-0.048767089844,0.022766113281,-0.010452270508,0.008728027344
0.011581420898,-0.085693359375,-0.068328857422,0.021118164063,-0.007598876953,0.005905151367
0.016464233398,-0.081817626953,-0.066741943359,0.018875122070,-0.008163452148,0.007369995117
0.022918701172,-0.061508178711,-0.049728393555,0.014312744141,-0.008392333984,0.009780883789
0.025146484375,-0.055725097656,-0.059906005859,0.012893676758,-0.006469726563,0.008728027344
0.029388427734,-0.059646606445,-0.070068359375,0.008758544922,-0.005355834961,0.004425048828
0.033355712891,-0.064468383789,-0.060424804688,0.007141113281,-0.006301879883,0.002563476563
0.039367675781,-0.068084716797,-0.037826538086,0.004043579102,-0.004669189453,0.000564575195
0.037902832031,-0.070434570313,-0.037765502930,0.003753662109,-0.001739501953,-0.000427246094
0.029190063477,-0.075057983398,-0.055282592773,0.005233764648,0.004028320313,-0.001831054688
0.021484375000,-0.074630737305,-0.065536499023,0.007873535156,0.005325317383,-0.002548217773
0.014892578125,-0.083297729492,-0.085067749023,0.008819580078,0.005798339844,-0.003952026367
0.014770507813,-0.081314086914,-0.081100463867,0.008666992188,0.004364013672,-0.003372192383
0.015701293945,-0.065887451172,-0.071197509766,0.009063720703,0.004516601563,-0.002212524414
0.012649536133,-0.059692382813,-0.082763671875,0.009765625000,0.006591796875,-0.002532958984
0.008544921875,-0.054153442383,-0.093597412109,0.009796142578,0.008209228516,-0.003738403320
-0.007751464844,-0.045364379883,-0.101181030273,0.008255004883,0.008636474609,-0.004272460938
-0.018539428711,-0.046218872070,-0.107727050781,0.006256103516,0.010757446289,-0.005386352539
-0.045272827148,-0.053726196289,-0.132293701172,0.005386352539,0.011581420898,-0.005294799805
-0.055557250977,-0.057098388672,-0.145065307617,0.004440307617,0.011199951172,-0.004898071289
-0.073333740234,-0.060638427734,-0.150344848633,0.002487182617,0.006423950195,-0.004562377930
-0.076721191406,-0.067550659180,-0.145095825195,0.002700805664,0.003448486328,-0.005264282227
-0.078720092773,-0.090072631836,-0.132125854492,0.004104614258,-0.000473022461,-0.005813598633
-0.074264526367,-0.098724365234,-0.129730224609,0.005249023438,-0.001403808594,-0.004608154297
-0.061035156250,-0.105346679688,-0.120391845703,0.004501342773,-0.003326416016,-0.000488281250
-0.053787231445,-0.101089477539,-0.117416381836,0.004135131836,-0.003799438477,0.002120971680
-0.037826538086,-0.089843750000,-0.111572265625,0.003540039063,-0.004318237305,0.006149291992
-0.029495239258,-0.083206176758,-0.108276367188,0.003829956055,-0.004333496094,0.007522583008
-0.011810302734,-0.068511962891,-0.103149414063,0.005706787109,-0.003509521484,0.009033203125
-0.003906250000,-0.064437866211,-0.103790283203,0.006637573242,-0.002593994141,0.009033203125
0.009948730469,-0.052627563477,-0.109817504883,0.007217407227,-0.000823974609,0.009384155273
0.017150878906,-0.047882080078,-0.111221313477,0.006835937500,-0.000350952148,0.009201049805
0.029724121094,-0.041839599609,-0.110214233398,0.005767822266,0.000366210937,0.008041381836
0.033355712891,-0.036483764648,-0.112121582031,0.004379272461,0.001007080078,0.007553100586
0.035491943359,-0.025634765625,-0.111953735352,0.002700805664,0.001632690430,0.005142211914
0.038101196289,-0.027191162109,-0.116867065430,0.001449584961,0.002197265625,0.002761840820
0.034881591797,-0.031280517578,-0.114257812500,-0.000381469727,0.001373291016,-0.001708984375
0.033523559570,-0.033843994141,-0.112899780273,-0.000991821289,0.001113891602,-0.003768920898
0.029968261719,-0.038040161133,-0.105026245117,-0.001281738281,0.000961303711,-0.007385253906
0.026290893555,-0.043563842773,-0.104751586914,-0.001922607422,0.001342773438,-0.009124755859
0.021881103516,-0.050079345703,-0.101943969727,-0.002426147461,0.001953125000,-0.011428833008
0.010208129883,-0.057601928711,-0.097610473633,-0.002395629883,0.002914428711,-0.011581420898
0.005935668945,-0.054870605469,-0.107131958008,-0.001861572266,0.004425048828,-0.011718750000
0.003860473633,-0.041168212891,-0.117538452148,-0.001281738281,0.003540039063,-0.012588500977
0.004257202148,-0.034011840820,-0.118515014648,-0.000762939453,0.001434326172,-0.016052246094
0.006439208984,-0.033508300781,-0.105575561523,-0.000579833984,0.000106811523,-0.018447875977
0.002685546875,-0.050033569336,-0.086273193359,-0.001312255859,-0.000442504883,-0.020736694336
-0.017669677734,-0.075195312500,-0.078704833984,-0.003463745117,0.005111694336,-0.018844604492
-0.029525756836,-0.076293945313,-0.087234497070,-0.004974365234,0.008483886719,-0.012985229492
-0.065567016602,-0.082778930664,-0.097503662109,-0.008209228516,0.012817382813,-0.010833740234
-0.081954956055,-0.085235595703,-0.116744995117,-0.008819580078,0.014633178711,-0.007354736328
-0.102767944336,-0.082687377930,-0.139083862305,-0.008041381836,0.011138916016,-0.006637573242
-0.105209350586,-0.085830688477,-0.137557983398,-0.006134033203,0.007110595703,-0.006805419922
-0.096710205078,-0.098175048828,-0.124069213867,-0.002471923828,0.000000000000,-0.006805419922
-0.088088989258,-0.098709106445,-0.117645263672,-0.001403808594,-0.002075195313,-0.005294799805
-0.075500488281,-0.094024658203,-0.108413696289,-0.000778198242,-0.004302978516,-0.001464843750
-0.071273803711,-0.091705322266,-0.110794067383,-0.000427246094,-0.004470825195,0.000091552734
-0.062042236328,-0.086517333984,-0.116455078125,-0.000137329102,-0.006011962891,0.003173828125
-0.056701660156,-0.083175659180,-0.114593505859,-0.000244140625,-0.007751464844,0.004470825195
-0.043395996094,-0.073059082031,-0.105789184570,0.002166748047,-0.010925292969,0.006240844727
-0.033645629883,-0.067489624023,-0.103118896484,-0.001724243164,-0.011718750000,0.007415771484
-0.017150878906,-0.061538696289,-0.098800659180,-0.006607055664,-0.012741088867,0.007980346680
-0.013275146484,-0.062591552734,-0.095062255859,-0.009536743164,-0.013519287109,0.007873535156
-0.000595092773,-0.066146850586,-0.090332031250,-0.014968872070,-0.013931274414,0.008392333984
0.006149291992,-0.064697265625,-0.082580566406,-0.018569946289,-0.014175415039,0.009384155273
0.023834228516,-0.046707153320,-0.055801391602,-0.026443481445,-0.013229370117,0.012130737305
0.032180786133,-0.036987304688,-0.052276611328,-0.029998779297,-0.010253906250,0.011993408203
0.031829833984,-0.041564941406,-0.059219360352,-0.038208007813,-0.005264282227,0.006698608398
0.022018432617,-0.053512573242,-0.057373046875,-0.043441772461,-0.004867553711,0.003234863281
0.020675659180,-0.069839477539,-0.050064086914,-0.043579101563,-0.006973266602,-0.000442504883
0.025009155273,-0.072509765625,-0.045974731445,-0.043380737305,-0.007843017578,-0.000717163086
0.028121948242,-0.070632934570,-0.032867431641,-0.044448852539,-0.007797241211,-0.000900268555
0.029556274414,-0.067703247070,-0.029830932617,-0.044418334961,-0.006744384766,-0.001068115234
0.022430419922,-0.068283081055,-0.019241333008,-0.045837402344,-0.004394531250,-0.003387451172
0.017410278320,-0.070877075195,-0.015457153320,-0.044250488281,-0.002502441406,-0.004959106445
0.005554199219,-0.073913574219,-0.005325317383,-0.042678833008,0.002670288086,-0.007751464844
-0.003128051758,-0.075653076172,-0.001785278320,-0.041000366211,0.006622314453,-0.009429931641
-0.026367187500,-0.086761474609,-0.005554199219,-0.039077758789,0.014785766602,-0.014572143555
-0.038192749023,-0.096603393555,-0.009063720703,-0.040451049805,0.018814086914,-0.017730712891
-0.056198120117,-0.131072998047,-0.015609741211,-0.042480468750,0.022872924805,-0.022735595703

-0.053359985352,-0.166152954102,0.090026855469,0.028305053711,-0.016525268555,-0.013290405273
-0.055053710938,-0.167129516602,0.102462768555,0.028839111328,-0.014190673828,-0.010131835938
-0.059478759766,-0.167083740234,0.079299926758,0.032409667969,-0.003433227539,-0.005554199219
-0.056472778320,-0.165145874023,0.055786132813,0.036804199219,0.000595092773,-0.003890991211
-0.053024291992,-0.169555664063,0.013565063477,0.045227050781,0.001907348633,-0.001464843750
-0.054122924805,-0.171920776367,0.004562377930,0.047683715820,-0.000778198242,-0.000198364258
-0.055297851563,-0.160552978516,0.013793945313,0.053512573242,-0.008392333984,0.002944946289
-0.053634643555,-0.151779174805,0.027526855469,0.059249877930,-0.010971069336,0.003112792969
-0.050765991211,-0.149337768555,0.016677856445,0.067565917969,-0.007308959961,0.000839233398
-0.050216674805,-0.154953002930,0.001174926758,0.063491821289,-0.005493164063,0.000137329102
-0.055541992188,-0.158370971680,-0.016113281250,0.062637329102,-0.006042480469,0.000747680664
-0.056335449219,-0.148742675781,-0.014739990234,0.068603515625,-0.007919311523,0.001770019531
-0.054473876953,-0.142074584961,-0.019500732422,0.077056884766,-0.007614135742,0.002090454102
-0.053237915039,-0.130737304688,-0.027832031250,0.072189331055,-0.005081176758,0.003372192383
-0.058502197266,-0.130157470703,-0.058349609375,0.074127197266,-0.002792358398,0.002838134766
-0.064865112305,-0.132507324219,-0.067535400391,0.076629638672,-0.004241943359,0.002334594727
-0.064773559570,-0.133361816406,-0.060592651367,0.083297729492,-0.007247924805,0.003738403320
-0.060379028320,-0.135040283203,-0.074050903320,0.072952270508,-0.007553100586,0.007217407227
-0.057922363281,-0.132339477539,-0.085678100586,0.060821533203,-0.010284423828,0.016357421875
-0.056381225586,-0.096542358398,-0.077499389648,0.054244995117,-0.012313842773,0.019195556641
-0.050338745117,-0.089920043945,-0.070785522461,0.049896240234,-0.013992309570,0.018341064453
-0.038940429688,-0.055709838867,-0.060516357422,0.042480468750,-0.013351440430,0.016754150391
-0.034347534180,-0.056915283203,-0.064132690430,0.042205810547,-0.012054443359,0.004562377930
-0.031188964844,-0.076828002930,-0.071975708008,0.038574218750,-0.010726928711,0.005538940430
-0.033676147461,-0.068801879883,-0.068496704102,0.038619995117,-0.011138916016,0.005493164063
-0.034378051758,-0.088668823242,-0.072082519531,0.027221679688,-0.010375976563,0.003784179688
-0.033691406250,-0.081710815430,-0.081024169922,0.031738281250,-0.010711669922,0.005187988281
-0.029922485352,-0.080780029297,-0.078048706055,0.026290893555,-0.012771606445,0.004501342773
-0.029769897461,-0.099792480469,-0.079513549805,0.025833129883,-0.014282226563,0.003784179688
-0.017959594727,-0.071105957031,-0.061508178711,0.026550292969,-0.015151977539,0.009140014648
-0.012084960938,-0.057357788086,-0.063552856445,0.024505615234,-0.013504028320,0.008956909180
-0.005477905273,-0.065093994141,-0.073410034180,0.021636962891,-0.011245727539,0.004257202148
-0.003387451172,-0.074920654297,-0.073867797852,0.019989013672,-0.010848999023,0.002929687500
-0.006973266602,-0.136367797852,-0.112731933594,0.018295288086,-0.010192871094,0.004592895508
0.002700805664,-0.098434448242,-0.081863403320,0.005630493164,-0.010513305664,0.012329101563
0.025161743164,-0.014404296875,-0.060073852539,0.017837524414,-0.008041381836,0.016098022461
0.026306152344,-0.080856323242,-0.065338134766,0.009597778320,-0.003601074219,0.008056640625
0.039886474609,-0.005523681641,-0.057785034180,0.018173217773,-0.005386352539,0.010940551758
0.043365478516,-0.020080566406,-0.064834594727,0.019805908203,-0.001586914063,0.003234863281
0.044692993164,-0.045089721680,-0.089065551758,0.015640258789,0.002777099609,-0.003219604492
0.045730590820,-0.040954589844,-0.085784912109,0.013427734375,0.002166748047,-0.002899169922
0.043319702148,-0.037002563477,-0.086746215820,0.008346557617,0.004013061523,-0.003814697266
0.040054321289,-0.037963867188,-0.093917846680,0.007415771484,0.005371093750,-0.004714965820
0.032897949219,-0.030090332031,-0.098007202148,0.005676269531,0.005889892578,-0.005401611328
0.026260375977,-0.026168823242,-0.098999023438,0.005279541016,0.006072998047,-0.006256103516
0.022003173828,-0.026580810547,-0.105331420898,0.003906250000,0.006835937500,-0.009017944336
0.008270263672,-0.039611816406,-0.105987548828,0.003143310547,0.006439208984,-0.009902954102
0.001968383789,-0.046020507813,-0.102890014648,0.001770019531,0.006423950195,-0.009750366211
-0.017913818359,-0.054168701172,-0.105651855469,-0.000350952148,0.008422851563,-0.007553100586
-0.030197143555,-0.057052612305,-0.115615844727,-0.000869750977,0.009841918945,-0.005996704102
-0.053649902344,-0.051132202148,-0.136398315430,-0.001663208008,0.010208129883,-0.002502441406
-0.061553955078,-0.043777465820,-0.142562866211,-0.001632690430,0.009078979492,-0.001586914063
-0.072601318359,-0.042663574219,-0.152130126953,-0.000610351563,0.005569458008,-0.003173828125
-0.073013305664,-0.052886962891,-0.151626586914,0.000198364258,0.003051757813,-0.004669189453
-0.063247680664,-0.077896118164,-0.128082275391,0.001312255859,-0.001586914063,-0.004119873047
-0.060195922852,-0.073913574219,-0.127792358398,0.001235961914,-0.001434326172,-0.001373291016
-0.050582885742,-0.062088012695,-0.141952514648,0.001770019531,-0.001586914063,0.002334594727
-0.043701171875,-0.060363769531,-0.132995605469,0.002029418945,-0.003417968750,0.003067016602
-0.030090332031,-0.049316406250,-0.125396728516,0.002426147461,-0.004333496094,0.004669189453
-0.023498535156,-0.049194335938,-0.129135131836,0.002929687500,-0.004119873047,0.004669189453
-0.012191772461,-0.048141479492,-0.121383666992,0.002975463867,-0.005523681641,0.005264282227
-0.006484985352,-0.042617797852,-0.121383666992,0.002883911133,-0.005386352539,0.005920410156
0.003234863281,-0.037322998047,-0.121871948242,0.002578735352,-0.005554199219,0.005935668945
0.007873535156,-0.035995483398,-0.117843627930,0.002273559570,-0.005828857422,0.005767822266
0.019134521484,-0.029815673828,-0.108291625977,0.001815795898,-0.005340576172,0.005294799805
0.023406982422,-0.029708862305,-0.105178833008,0.001846313477,-0.004333496094,0.004470825195
0.027023315430,-0.032302856445,-0.111221313477,0.001373291016,-0.001770019531,0.003005981445
0.027740478516,-0.030700683594,-0.111648559570,0.000854492188,-0.001190185547,0.002578735352
0.027084350586,-0.027618408203,-0.113143920898,0.000411987305,-0.000106811523,0.001007080078
0.026565551758,-0.028076171875,-0.113784790039,0.000274658203,0.000381469727,-0.000122070313
0.025146484375,-0.034118652344,-0.109817504883,-0.000106811523,0.000961303711,-0.002212524414
0.022888183594,-0.034927368164,-0.109664916992,-0.000228881836,0.001663208008,-0.002944946289
0.020523071289,-0.038024902344,-0.110031127930,-0.000717163086,0.003051757813,-0.003616333008
0.014678955078,-0.042602539063,-0.110046386719,-0.001052856445,0.003738403320,-0.003356933594
0.011398315430,-0.040100097656,-0.111816406250,-0.001678466797,0.005279541016,-0.002532958984
0.003433227539,-0.035583496094,-0.114791870117,-0.001846313477,0.005538940430,-0.002670288086
-0.000457763672,-0.034378051758,-0.115554809570,-0.001876831055,0.005828857422,-0.003417968750
-0.005981445313,-0.030044555664,-0.122848510742,-0.001495361328,0.006423950195,-0.004043579102
-0.007446289063,-0.027435302734,-0.124893188477,-0.001266479492,0.006195068359,-0.004974365234
-0.009979248047,-0.029891967773,-0.123962402344,-0.001327514648,0.005218505859,-0.007812500000
-0.011703491211,-0.037384033203,-0.118545532227,-0.001617431641,0.004638671875,-0.009155273438
-0.016662597656,-0.051589965820,-0.108352661133,-0.002914428711,0.005096435547,-0.009582519531
-0.022552490234,-0.056335449219,-0.107437133789,-0.003616333008,0.006195068359,-0.008819580078
-0.033828735352,-0.062759399414,-0.117034912109,-0.004409790039,0.008285522461,-0.006423950195
-0.040100097656,-0.063217163086,-0.122375488281,-0.004928588867,0.008529663086,-0.004852294922
-0.047225952148,-0.058624267578,-0.128753662109,-0.005523681641,0.007339477539,-0.002410888672
-0.048171997070,-0.056930541992,-0.131271362305,-0.005798339844,0.006256103516,-0.001892089844
-0.049896240234,-0.053009033203,-0.131484985352,-0.006546020508,0.003051757813,-0.001693725586
-0.048965454102,-0.053161621094,-0.129699707031,-0.006774902344,0.001220703125,-0.002029418945
-0.042327880859,-0.061218261719,-0.118927001953,-0.006774902344,-0.002044677734,-0.003051757813
-0.037368774414,-0.067626953125,-0.115188598633,-0.006881713867,-0.002944946289,-0.003097534180
-0.027069091797,-0.067672729492,-0.104492187500,-0.009445190430,-0.004043579102,-0.000686645508
-0.023178100586,-0.060516357422,-0.102813720703,-0.011093139648,-0.003829956055,0.000854492188
-0.014144897461,-0.048965454102,-0.101654052734,-0.013427734375,-0.003753662109,0.000762939453
-0.013076782227,-0.049468994141,-0.102218627930,-0.015182495117,-0.004150390625,-0.000625610352
-0.010284423828,-0.060501098633,-0.102188110352,-0.020248413086,-0.005798339844,-0.003662109375
-0.007568359375,-0.063247680664,-0.102233886719,-0.022705078125,-0.007293701172,-0.004226684570
-0.008392333984,-0.066131591797,-0.090820312500,-0.029373168945,-0.009429931641,-0.003570556641
-0.007431030273,-0.064086914063,-0.086288452148,-0.032516479492,-0.009597778320,-0.002670288086
-0.004547119141,-0.068328857422,-0.080200195313,-0.033859252930,-0.009216308594,-0.002273559570
-0.004470825195,-0.074447631836,-0.072082519531,-0.033843994141,-0.009109497070,-0.002105712891
-0.000076293945,-0.082092285156,-0.052932739258,-0.034255981445,-0.007003784180,0.000122070313
0.000244140625,-0.080657958984,-0.048019409180,-0.035888671875,-0.003906250000,0.002151489258
0.000106811523,-0.078353881836,-0.051910400391,-0.035903930664,0.003982543945,0.004638671875

-0.046310424805,-0.160354614258,0.105224609375,0.032897949219,-0.000701904297,-0.009719848633
-0.054626464844,-0.171524047852,0.110671997070,0.032989501953,-0.000152587891,-0.009658813477
-0.054046630859,-0.177001953125,0.106948852539,0.025726318359,0.004180908203,-0.004669189453
-0.059326171875,-0.173706054688,0.093231201172,0.023773193359,0.007354736328,-0.002120971680
-0.045486450195,-0.161193847656,0.055358886719,0.033264160156,0.010025024414,0.001892089844
-0.036483764648,-0.152221679688,0.044235229492,0.033264160156,0.007827758789,0.003906250000
-0.030670166016,-0.146743774414,0.040023803711,0.028472900391,0.004379272461,0.006851196289
-0.038726806641,-0.119842529297,0.039291381836,0.022369384766,0.003448486328,0.008941650391
-0.038986206055,-0.117996215820,0.034164428711,0.017440795898,0.001495361328,0.006759643555
-0.033218383789,-0.139083862305,0.042572021484,0.012985229492,-0.003570556641,0.006652832031
-0.027725219727,-0.137344360352,0.054199218750,0.010955810547,-0.005187988281,0.008972167969
-0.014205932617,-0.104278564453,0.049316406250,0.006317138672,-0.002243041992,0.016296386719
-0.009521484375,-0.091613769531,0.033126831055,0.005508422852,-0.001037597656,0.017700195313
-0.000732421875,-0.089477539063,0.037155151367,-0.003555297852,-0.005493164063,0.017181396484
0.003479003906,-0.093139648438,0.048095703125,-0.006393432617,-0.007507324219,0.017105102539
0.011398315430,-0.084838867188,0.068634033203,-0.010238647461,-0.008560180664,0.018875122070
0.018356323242,-0.068939208984,0.069335937500,-0.012252807617,-0.007202148438,0.019897460938
0.033523559570,-0.051879882813,0.050903320313,-0.015060424805,-0.003540039063,0.016799926758
0.037841796875,-0.054229736328,0.042190551758,-0.016784667969,-0.003372192383,0.013732910156
0.040573120117,-0.078674316406,0.038314819336,-0.018478393555,-0.006546020508,0.009582519531
0.040878295898,-0.088165283203,0.052581787109,-0.019500732422,-0.009353637695,0.009902954102
0.041442871094,-0.062561035156,0.048202514648,-0.022155761719,-0.010070800781,0.015167236328
0.043472290039,-0.044799804688,0.053634643555,-0.022384643555,-0.011688232422,0.015975952148
0.043640136719,-0.033767700195,0.066650390625,-0.021652221680,-0.013977050781,0.012252807617
0.042602539063,-0.030166625977,0.065460205078,-0.020812988281,-0.013412475586,0.010086059570
0.041076660156,-0.027206420898,0.079223632813,-0.020248413086,-0.014160156250,0.006011962891
0.031707763672,-0.032836914063,0.082305908203,-0.020812988281,-0.013442993164,0.004180908203
0.021377563477,-0.034362792969,0.087265014648,-0.021133422852,-0.012329101563,0.003463745117
0.003204345703,-0.025619506836,0.087387084961,-0.021896362305,-0.011764526367,0.003784179688
-0.007705688477,-0.025634765625,0.091674804688,-0.023376464844,-0.011505126953,0.002548217773
-0.036773681641,-0.044387817383,0.102508544922,-0.028427124023,-0.009262084961,0.001129150391
-0.050582885742,-0.062698364258,0.105636596680,-0.028366088867,-0.007049560547,-0.000961303711
-0.070053100586,-0.091201782227,0.103149414063,-0.021163940430,-0.002609252930,-0.000442504883
-0.075637817383,-0.094314575195,0.100936889648,-0.014602661133,-0.001296997070,0.000946044922
-0.079681396484,-0.092742919922,0.097747802734,-0.006317138672,0.000411987305,0.004058837891
-0.077835083008,-0.092300415039,0.092727661133,-0.003433227539,0.000991821289,0.005203247070
-0.073959350586,-0.079711914063,0.089447021484,-0.001068115234,0.000350952148,0.007263183594
-0.071395874023,-0.072494506836,0.090255737305,-0.000137329102,-0.000122070313,0.006698608398
-0.067276000977,-0.076171875000,0.088058471680,-0.000762939453,0.000320434570,0.001785278320
-0.069229125977,-0.084869384766,0.087356567383,0.000228881836,0.000579833984,-0.000701904297
-0.072555541992,-0.102035522461,0.093353271484,0.001419067383,0.000000000000,-0.003158569336
-0.068908691406,-0.108734130859,0.106430053711,0.004241943359,-0.000946044922,-0.003082275391
-0.062942504883,-0.092864990234,0.115676879883,0.007690429688,0.002639770508,-0.000228881836
-0.061187744141,-0.089828491211,0.108932495117,0.009185791016,0.005020141602,0.000183105469
-0.054840087891,-0.081726074219,0.105224609375,0.014678955078,0.007156372070,0.000503540039
-0.053237915039,-0.076660156250,0.100433349609,0.015274047852,0.008468627930,0.000259399414
-0.054992675781,-0.077163696289,0.096450805664,0.016403198242,0.008956909180,-0.001937866211
-0.055603027344,-0.085235595703,0.103286743164,0.015274047852,0.008193969727,-0.003799438477
-0.053283691406,-0.095291137695,0.114364624023,0.012603759766,0.008895874023,-0.006454467773
-0.044281005859,-0.117080688477,0.108764648438,0.012451171875,0.010696411133,-0.006149291992
-0.037109375000,-0.120071411133,0.104232788086,0.012588500977,0.012603759766,-0.003219604492
-0.021133422852,-0.122222900391,0.093078613281,0.014038085938,0.013381958008,-0.001617431641
-0.012680053711,-0.120483398438,0.078216552734,0.015029907227,0.014602661133,0.003829956055
0.003768920898,-0.118423461914,0.069320678711,0.014114379883,0.013153076172,0.002380371094
0.012619018555,-0.119766235352,0.073791503906,0.014053344727,0.011703491211,0.003189086914
0.032806396484,-0.120819091797,0.080581665039,0.016082763672,0.012435913086,0.005172729492
0.044891357422,-0.118560791016,0.081649780273,0.016052246094,0.014144897461,0.006546020508
0.061203002930,-0.108428955078,0.050704956055,0.012863159180,0.018569946289,0.009811401367
0.068283081055,-0.094757080078,0.033004760742,0.007415771484,0.019165039063,0.011581420898
0.081802368164,-0.076980590820,0.033523559570,0.003295898438,0.013229370117,0.009887695313
0.087249755859,-0.075317382813,0.036956787109,0.001953125000,0.010742187500,0.007919311523
0.088470458984,-0.074417114258,0.039276123047,-0.001739501953,0.007690429688,0.004714965820
0.087448120117,-0.086959838867,0.038665771484,-0.002700805664,0.005920410156,0.003799438477
0.087402343750,-0.090057373047,0.039581298828,-0.003463745117,0.000076293945,0.005172729492
0.082382202148,-0.081420898438,0.032226562500,-0.008499145508,-0.000106811523,0.006942749023
0.080963134766,-0.068893432617,0.033157348633,-0.009719848633,-0.002441406250,0.008728027344
0.072296142578,-0.062377929688,0.058654785156,-0.006607055664,-0.008316040039,0.008178710938
0.067932128906,-0.062957763672,0.061660766602,-0.005325317383,-0.008743286133,0.007720947266
0.063903808594,-0.038757324219,0.046096801758,-0.010238647461,-0.008178710938,0.009231567383
0.053833007813,-0.028930664063,0.040573120117,-0.012344360352,-0.009078979492,0.007461547852
0.035903930664,-0.035278320313,0.040969848633,-0.011093139648,-0.013580322266,-0.000381469727
0.023178100586,-0.049682617188,0.049240112305,-0.010543823242,-0.016418457031,-0.004226684570
-0.016448974609,-0.079010009766,0.066116333008,-0.012207031250,-0.018951416016,-0.007644653320
-0.030548095703,-0.086242675781,0.062927246094,-0.009887695313,-0.019485473633,-0.006301879883
-0.055587768555,-0.081192016602,0.083694458008,-0.013320922852,-0.025802612305,-0.001754760742
-0.062622070313,-0.082427978516,0.097320556641,-0.014816284180,-0.028961181641,-0.000946044922
-0.070861816406,-0.090194702148,0.130477905273,-0.022644042969,-0.030242919922,0.001571655273
-0.070220947266,-0.074447631836,0.143600463867,-0.028549194336,-0.027679443359,0.005264282227
-0.065444946289,-0.022369384766,0.133575439453,-0.031234741211,-0.017547607422,0.008148193359
-0.064575195313,-0.012405395508,0.123626708984,-0.028213500977,-0.013244628906,0.004669189453
-0.057403564453,-0.005126953125,0.100860595703,-0.025131225586,-0.009582519531,-0.003067016602
-0.060333251953,-0.005401611328,0.091690063477,-0.025634765625,-0.008819580078,-0.006500244141
-0.060836791992,-0.016281127930,0.085571289063,-0.025222778320,-0.009323120117,-0.012588500977
-0.060852050781,-0.027282714844,0.078857421875,-0.022247314453,-0.009384155273,-0.014877319336
-0.065643310547,-0.023834228516,0.079910278320,-0.019393920898,-0.010848999023,-0.015533447266
-0.065658569336,-0.020339965820,0.084365844727,-0.019363403320,-0.011627197266,-0.015625000000
-0.069702148438,-0.010635375977,0.095077514648,-0.026626586914,-0.011154174805,-0.015472412109
-0.072311401367,-0.001342773438,0.093780517578,-0.035354614258,-0.009597778320,-0.015274047852
-0.072555541992,0.004592895508,0.067031860352,-0.035522460938,-0.007217407227,-0.019393920898
-0.076019287109,-0.011886596680,0.068511962891,-0.032180786133,-0.008941650391,-0.023422241211
-0.086318969727,-0.048599243164,0.098846435547,-0.033416748047,-0.013702392578,-0.027053833008
-0.089508056641,-0.057754516602,0.116470336914,-0.032852172852,-0.014770507813,-0.025939941406
-0.086380004883,-0.054901123047,0.133560180664,-0.025344848633,-0.013092041016,-0.022262573242
-0.079757690430,-0.032714843750,0.121902465820,-0.025985717773,-0.010284423828,-0.019073486328
-0.072769165039,-0.031539916992,0.138397216797,-0.043304443359,-0.008972167969,-0.018646240234
-0.070449829102,-0.044158935547,0.147369384766,-0.035934448242,-0.008468627930,-0.019775390625
-0.060501098633,-0.033386230469,0.119644165039,-0.021438598633,-0.000885009766,-0.017639160156
-0.053527832031,-0.039825439453,0.116928100586,-0.016937255859,-0.000762939453,-0.018081665039
-0.042984008789,-0.049285888672,0.139724731445,-0.014068603516,-0.001113891602,-0.018127441406
-0.037368774414,-0.054122924805,0.149444580078,-0.009353637695,0.000091552734,-0.018020629883
-0.029541015625,-0.072082519531,0.146270751953,-0.001983642578,0.003814697266,-0.016769409180
-0.021697998047,-0.080368041992,0.152038574219,-0.000793457031,0.003799438477,-0.015197753906
-0.014984130859,-0.082702636719,0.179138183594,0.000610351563,0.003707885742,-0.010864257813
-0.000869750977,-0.082504272461,0.181625366211,-0.000549316406,0.006958007813,-0.008087158203

-0.105682373047,0.021697998047,0.172744750977,0.001770019531,-0.002639770508,0.010253906250
-0.094039916992,0.024459838867,0.171478271484,0.004104614258,0.001159667969,0.006576538086
-0.068847656250,0.018600463867,0.155136108398,0.008529663086,0.010971069336,-0.004898071289
-0.064300537109,0.008422851563,0.145050048828,0.013092041016,0.014862060547,-0.011016845703
-0.050323486328,-0.016937255859,0.114822387695,0.018539428711,0.020477294922,-0.017776489258
-0.037567138672,-0.020996093750,0.098724365234,0.020736694336,0.020812988281,-0.018020629883
-0.016540527344,-0.023376464844,0.085678100586,0.020324707031,0.016891479492,-0.019149780273
-0.007553100586,-0.022720336914,0.087356567383,0.018859863281,0.013626098633,-0.019836425781
0.005142211914,-0.021408081055,0.092926025391,0.018005371094,0.008300781250,-0.021911621094
0.010437011719,-0.024719238281,0.098693847656,0.015899658203,0.006118774414,-0.022903442383
0.016769409180,-0.029525756836,0.103332519531,0.010848999023,0.003555297852,-0.023605346680
0.029708862305,-0.045120239258,0.115737915039,0.008468627930,0.002990722656,-0.023040771484
0.037490844727,-0.052337646484,0.123794555664,0.007812500000,0.002609252930,-0.019729614258
0.050430297852,-0.058532714844,0.119491577148,0.005538940430,0.005477905273,-0.017227172852
0.055297851563,-0.054183959961,0.112228393555,0.004287719727,0.006332397461,-0.014678955078
0.066558837891,-0.046722412109,0.098144531250,0.000732421875,0.004776000977,-0.011398315430
0.072006225586,-0.053848266602,0.093841552734,-0.000473022461,0.002944946289,-0.011291503906
0.079254150391,-0.058883666992,0.102127075195,-0.001098632813,-0.001571655273,-0.009704589844
0.080261230469,-0.060928344727,0.108398437500,-0.002059936523,-0.003128051758,-0.008316040039
0.073074340820,-0.073699951172,0.113342285156,-0.004425048828,-0.003921508789,-0.005157470703
0.070022583008,-0.089721679688,0.114212036133,-0.006637573242,-0.003463745117,-0.002456665039
0.064239501953,-0.061874389648,0.105010986328,-0.007431030273,-0.004364013672,0.007751464844
0.051635742188,-0.054626464844,0.110061645508,-0.005950927734,-0.006149291992,0.009170532227
0.045913696289,-0.047668457031,0.135040283203,-0.015670776367,-0.007522583008,0.013320922852
0.042495727539,-0.029754638672,0.141082763672,-0.017761230469,-0.004684448242,0.015045166016
0.025772094727,-0.037384033203,0.122695922852,-0.019607543945,0.001403808594,0.010040283203
0.017150878906,-0.039520263672,0.116592407227,-0.019470214844,0.002090454102,0.009475708008
0.003128051758,-0.037353515625,0.112533569336,-0.022277832031,0.002838134766,0.012161254883
-0.017440795898,-0.023391723633,0.103866577148,-0.020339965820,0.001968383789,0.013351440430
-0.021759033203,-0.016876220703,0.103591918945,-0.016571044922,0.000030517578,0.014205932617
-0.031753540039,-0.004592895508,0.114089965820,-0.009765625000,-0.004104614258,0.014511108398
-0.040481567383,0.001998901367,0.117935180664,-0.007583618164,-0.004577636719,0.014602661133
-0.047912597656,0.018905639648,0.125442504883,-0.002746582031,-0.003143310547,0.012878417969
-0.049987792969,0.019256591797,0.120910644531,-0.001449584961,-0.001815795898,0.010360717773
-0.052307128906,0.005996704102,0.111679077148,-0.000686645508,-0.001174926758,0.005966186523
-0.054565429688,0.004898071289,0.102340698242,0.000000000000,-0.001876831055,0.004959106445
-0.056015014648,0.019256591797,0.121948242188,-0.000457763672,-0.006530761719,0.003234863281
-0.055343627930,0.019256591797,0.145431518555,0.001174926758,-0.007369995117,0.000045776367
-0.055206298828,-0.002090454102,0.148742675781,0.005493164063,-0.003021240234,-0.005966186523
-0.051757812500,-0.009094238281,0.147842407227,0.005828857422,-0.001602172852,-0.006973266602
-0.041503906250,-0.012466430664,0.136398315430,0.003250122070,0.001251220703,-0.006195068359
-0.040252685547,-0.014328002930,0.122070312500,0.005157470703,0.002670288086,-0.005676269531
-0.031097412109,-0.014312744141,0.099426269531,0.005554199219,0.002212524414,-0.003356933594
-0.024368286133,-0.012557983398,0.103103637695,0.007400512695,-0.000854492188,-0.002777099609
-0.015029907227,-0.003173828125,0.135696411133,0.006347656250,-0.005706787109,-0.002288818359
-0.013397216797,-0.006134033203,0.131271362305,0.003967285156,-0.002822875977,-0.003356933594
-0.011047363281,-0.006622314453,0.123474121094,0.001586914063,0.000930786133,-0.005233764648
-0.006103515625,-0.016937255859,0.123123168945,0.001190185547,0.000839233398,-0.006301879883
-0.005661010742,-0.027542114258,0.119689941406,0.000869750977,0.001068115234,-0.005599975586
-0.009124755859,-0.029891967773,0.107910156250,0.001266479492,0.001693725586,-0.003433227539
-0.007064819336,-0.022369384766,0.107620239258,0.001739501953,0.000656127930,-0.001281738281
-0.001113891602,-0.018524169922,0.112640380859,0.000717163086,-0.001831054688,-0.000213623047
0.003158569336,-0.021896362305,0.108963012695,-0.001403808594,-0.002243041992,-0.000442504883
0.003128051758,-0.024963378906,0.100540161133,-0.002044677734,-0.003387451172,-0.000122070313
0.005508422852,-0.022964477539,0.100646972656,-0.002395629883,-0.004196166992,0.000518798828
0.007217407227,-0.012268066406,0.114501953125,-0.000335693359,-0.006423950195,0.000137329102
0.007186889648,-0.010757446289,0.116271972656,0.000289916992,-0.006134033203,-0.001022338867
0.008132934570,-0.014282226563,0.114624023438,0.003555297852,-0.004867553711,-0.004379272461
0.008575439453,-0.036621093750,0.121032714844,0.003387451172,-0.005126953125,-0.006286621094
0.009902954102,-0.039474487305,0.133193969727,0.004074096680,-0.004623413086,-0.001785278320
0.010986328125,-0.033584594727,0.133926391602,0.005706787109,-0.003265380859,0.000061035156
0.014144897461,-0.021255493164,0.132415771484,0.002746582031,-0.000457763672,-0.000137329102
0.017089843750,-0.029464721680,0.124114990234,0.001144409180,0.000091552734,-0.001541137695
0.019973754883,-0.037490844727,0.124237060547,-0.001739501953,-0.001327514648,-0.000854492188
0.020477294922,-0.035598754883,0.130004882813,-0.001327514648,-0.001983642578,0.000579833984
0.021743774414,-0.026229858398,0.136642456055,-0.001800537109,-0.001007080078,0.003234863281
0.019714355469,-0.020507812500,0.137039184570,-0.002014160156,-0.000366210937,0.003707885742
0.017547607422,-0.016052246094,0.134155273438,-0.003189086914,0.000625610352,0.002716064453
0.017776489258,-0.013595581055,0.131408691406,-0.003204345703,0.000244140625,0.001831054688
0.017578125000,-0.016586303711,0.134201049805,-0.003387451172,-0.000381469727,0.000778198242
0.013046264648,-0.026214599609,0.137237548828,-0.004150390625,-0.000427246094,0.000427246094
0.013488769531,-0.023529052734,0.130355834961,-0.004684448242,0.000228881836,0.001876831055
0.017028808594,-0.008270263672,0.116058349609,-0.007888793945,0.000396728516,0.003952026367
0.012680053711,-0.005798339844,0.116210937500,-0.009521484375,0.000366210937,0.003280639648
-0.006027221680,-0.012313842773,0.120925903320,-0.011917114258,0.000350952148,0.001480102539
-0.021881103516,0.003814697266,0.126937866211,-0.009124755859,0.000045776367,0.001861572266
-0.023406982422,0.012878417969,0.136245727539,0.000946044922,-0.003646850586,-0.001480102539
-0.018218994141,0.005767822266,0.137649536133,0.002471923828,-0.003494262695,-0.003753662109
-0.021347045898,-0.012832641602,0.131668090820,0.002136230469,-0.000579833984,-0.005996704102
-0.025894165039,-0.013610839844,0.128601074219,0.002197265625,0.000320434570,-0.005065917969
-0.025573730469,-0.008117675781,0.128738403320,0.004196166992,-0.000030517578,-0.002960205078
-0.025299072266,-0.008865356445,0.129989624023,0.004531860352,-0.000183105469,-0.002624511719
-0.018341064453,-0.017639160156,0.134063720703,0.004425048828,0.000518798828,-0.002151489258
-0.015502929688,-0.018005371094,0.131072998047,0.004211425781,0.001617431641,-0.001342773438
-0.013320922852,-0.015670776367,0.125488281250,0.003265380859,0.003570556641,-0.000228881836
-0.009536743164,-0.015792846680,0.124023437500,0.002761840820,0.003555297852,-0.000274658203
-0.007858276367,-0.017303466797,0.124145507813,0.003067016602,0.007690429688,-0.000122070313
-0.004913330078,-0.017196655273,0.117797851563,0.002853393555,0.004837036133,0.000167846680
-0.003494262695,-0.016876220703,0.113006591797,0.002517700195,0.004608154297,0.000335693359
-0.002929687500,-0.013671875000,0.108673095703,0.001327514648,0.002716064453,0.000366210937
-0.002685546875,-0.013473510742,0.111526489258,0.001266479492,0.001266479492,0.000045776367
-0.002304077148,-0.015930175781,0.120422363281,0.000778198242,-0.000747680664,-0.000549316406
-0.003173828125,-0.017608642578,0.123672485352,0.000961303711,-0.000976562500,-0.000625610352
-0.003082275391,-0.016403198242,0.123062133789,0.000701904297,-0.000457763672,0.000167846680
-0.004074096680,-0.014617919922,0.122665405273,0.000320434570,-0.000259399414,0.000518798828
-0.005874633789,-0.011001586914,0.121414184570,0.000259399414,-0.000228881836,0.000640869141
-0.006042480469,-0.010345458984,0.121643066406,0.000366210937,-0.000244140625,0.000396728516
-0.008483886719,-0.013702392578,0.124908447266,-0.000289916992,-0.000335693359,-0.000335693359
-0.008911132813,-0.014389038086,0.126770019531,0.000076293945,-0.000305175781,-0.000289916992
-0.009643554688,-0.015716552734,0.127441406250,0.000152587891,0.000320434570,-0.000061035156
-0.010559082031,-0.014358520508,0.126770019531,0.000381469727,0.000656127930,0.000106811523
-0.009857177734,-0.011734008789,0.125411987305,0.001312255859,0.001022338867,0.000213623047
-0.009719848633,-0.012023925781,0.124679565430,0.001510620117,0.001205444336,-0.000167846680
-0.008224487305,-0.015335083008,0.120117187500,0.001724243164,0.001678466797,-0.000717163086

0.004989624023,-0.181030273438,0.114883422852,0.097625732422,-0.000946044922,-0.014785766602
0.003570556641,-0.199050903320,0.092651367188,0.104034423828,0.002517700195,-0.013839721680
0.014724731445,-0.196990966797,0.042175292969,0.112899780273,0.005538940430,-0.005676269531
0.009902954102,-0.183609008789,0.034713745117,0.114227294922,0.004058837891,-0.000503540039
0.025146484375,-0.148300170898,0.004623413086,0.098922729492,0.005935668945,0.006134033203
0.023040771484,-0.139572143555,-0.034942626953,0.091262817383,0.007995605469,0.005783081055
0.018920898438,-0.130096435547,-0.070297241211,0.062271118164,0.001113891602,0.003417968750
0.006149291992,-0.121032714844,-0.050735473633,0.047424316406,-0.005950927734,0.001663208008
-0.007904052734,-0.135131835938,-0.042602539063,0.024932861328,-0.011840820313,-0.001251220703
-0.016250610352,-0.136169433594,-0.018493652344,0.015899658203,-0.013198852539,0.000427246094
-0.022247314453,-0.123336791992,-0.014602661133,0.014083862305,-0.013351440430,0.004913330078
-0.031417846680,-0.099365234375,-0.012954711914,0.013717651367,-0.013824462891,0.005569458008
-0.032501220703,-0.088912963867,-0.007507324219,0.014373779297,-0.014831542969,0.004562377930
-0.042480468750,-0.082107543945,0.008758544922,0.014419555664,-0.016464233398,0.003463745117
-0.045593261719,-0.082199096680,0.014938354492,0.011077880859,-0.015884399414,0.002334594727
-0.057403564453,-0.090957641602,0.008331298828,0.007278442383,-0.012832641602,0.000595092773
-0.061187744141,-0.086990356445,0.007614135742,0.004745483398,-0.012557983398,0.001174926758
-0.070236206055,-0.075485229492,0.030593872070,0.002700805664,-0.014923095703,0.002166748047
-0.073272705078,-0.073776245117,0.044021606445,-0.001235961914,-0.014801025391,0.001800537109
-0.078994750977,-0.096527099609,0.042739868164,-0.007568359375,-0.008972167969,-0.000564575195
-0.079162597656,-0.103759765625,0.039871215820,-0.009445190430,-0.006622314453,0.000289916992
-0.071975708008,-0.090896606445,0.039947509766,-0.008834838867,-0.003829956055,0.004669189453
-0.068618774414,-0.085357666016,0.038314819336,-0.008361816406,-0.002136230469,0.005355834961
-0.062194824219,-0.095672607422,0.030075073242,-0.008850097656,0.001419067383,0.004699707031
-0.056518554688,-0.093505859375,0.031738281250,-0.008255004883,0.002578735352,0.005340576172
-0.044387817383,-0.085998535156,0.029342651367,-0.004791259766,0.005813598633,0.005752563477
-0.040740966797,-0.090148925781,0.025817871094,-0.003463745117,0.007415771484,0.005035400391
-0.030426025391,-0.095306396484,0.026397705078,-0.000396728516,0.009384155273,0.004440307617
-0.025009155273,-0.095138549805,0.027267456055,0.001235961914,0.010513305664,0.004364013672
-0.014236450195,-0.101699829102,0.018493652344,0.004531860352,0.013336181641,0.003143310547
-0.008300781250,-0.105163574219,0.014419555664,0.005813598633,0.014038085938,0.002685546875
-0.002014160156,-0.115036010742,-0.001083374023,0.007904052734,0.015304565430,0.001983642578
0.011627197266,-0.120483398438,-0.008041381836,0.008483886719,0.015090942383,0.002136230469
0.019485473633,-0.120941162109,-0.011123657227,0.009368896484,0.013015747070,0.003067016602
0.034179687500,-0.123413085938,-0.016555786133,0.009735107422,0.012054443359,0.002990722656
0.042633056641,-0.126449584961,-0.018280029297,0.010589599609,0.010894775391,0.003067016602
0.059906005859,-0.126296997070,-0.026306152344,0.012084960938,0.008621215820,0.003433227539
0.070938110352,-0.125442504883,-0.030059814453,0.012420654297,0.007095336914,0.003662109375
0.089050292969,-0.115966796875,-0.057907104492,0.008651733398,0.004959106445,0.003463745117
0.093002319336,-0.105102539063,-0.059020996094,0.007202148438,0.001113891602,0.003250122070
0.084167480469,-0.100128173828,-0.044479370117,0.002304077148,-0.004898071289,-0.000854492188
0.071121215820,-0.112564086914,-0.040405273438,-0.000122070313,-0.005798339844,-0.003738403320
0.042312622070,-0.135940551758,-0.040359497070,-0.003234863281,-0.006973266602,-0.006744384766
0.030075073242,-0.140747070313,-0.039550781250,-0.003997802734,-0.007949829102,-0.006668090820
0.008697509766,-0.143707275391,-0.029739379883,-0.003921508789,-0.011093139648,-0.005554199219
0.001815795898,-0.141326904297,-0.019073486328,-0.003265380859,-0.012649536133,-0.004577636719
-0.010345458984,-0.124221801758,0.005630493164,-0.001953125000,-0.014038085938,-0.002059936523
-0.016326904297,-0.116363525391,0.009918212891,-0.002227783203,-0.013122558594,-0.001632690430
-0.028930664063,-0.117126464844,0.008834838867,-0.001693725586,-0.010665893555,-0.003250122070
-0.033615112305,-0.117248535156,0.010360717773,-0.001220703125,-0.009994506836,-0.003631591797
-0.045791625977,-0.122406005859,0.000228881836,0.000289916992,-0.007202148438,-0.004302978516
-0.050064086914,-0.128677368164,-0.004791259766,0.000473022461,-0.006439208984,-0.004516601563
-0.056228637695,-0.123214721680,-0.005126953125,-0.000610351563,-0.006179809570,-0.002304077148
-0.060028076172,-0.116989135742,-0.001296997070,-0.002227783203,-0.005889892578,-0.001464843750
-0.064193725586,-0.119186401367,0.003219604492,-0.005264282227,-0.003753662109,-0.002044677734
-0.067901611328,-0.124267578125,-0.001113891602,-0.007431030273,-0.001678466797,-0.002456665039
-0.069320678711,-0.126342773438,-0.013122558594,-0.011886596680,0.001083374023,-0.002136230469
-0.068603515625,-0.126113891602,-0.015899658203,-0.015014648438,0.001541137695,-0.001892089844
-0.065933227539,-0.124237060547,-0.008209228516,-0.021606445313,0.001144409180,-0.001815795898
-0.063827514648,-0.122726440430,-0.001739501953,-0.026596069336,0.001235961914,-0.001800537109
-0.054306030273,-0.114517211914,0.011825561523,-0.039184570313,0.002319335938,-0.001800537109
-0.052642822266,-0.110992431641,0.019546508789,-0.046768188477,0.003494262695,-0.002075195313
-0.048873901367,-0.114776611328,0.022903442383,-0.054397583008,0.005630493164,-0.003021240234
-0.046447753906,-0.108993530273,0.027008056641,-0.056823730469,0.005355834961,-0.002197265625
-0.038360595703,-0.083129882813,0.039855957031,-0.061294555664,0.005004882813,-0.001388549805
-0.036605834961,-0.071960449219,0.046142578125,-0.065917968750,0.005462646484,-0.002822875977
-0.039428710938,-0.067581176758,0.056274414063,-0.068542480469,0.005493164063,-0.008880615234
-0.038345336914,-0.072235107422,0.059997558594,-0.065490722656,0.005371093750,-0.012069702148
-0.035781860352,-0.089797973633,0.063095092773,-0.056930541992,0.004379272461,-0.015304565430
-0.033508300781,-0.093490600586,0.066146850586,-0.053527832031,0.003875732422,-0.015289306641
-0.029708862305,-0.105575561523,0.070404052734,-0.046585083008,0.003692626953,-0.015213012695
-0.029266357422,-0.102355957031,0.079513549805,-0.041595458984,0.003204345703,-0.013870239258
-0.026489257813,-0.091827392578,0.074478149414,-0.033355712891,0.003646850586,-0.011291503906
-0.020797729492,-0.077285766602,0.078979492188,-0.032516479492,0.002853393555,-0.011917114258
-0.027038574219,-0.091629028320,0.084350585938,-0.032546997070,0.001739501953,-0.013885498047
-0.017501831055,-0.090042114258,0.091369628906,-0.031860351563,0.001266479492,-0.012619018555
-0.014968872070,-0.087341308594,0.095657348633,-0.025161743164,0.002075195313,-0.009658813477
-0.011962890625,-0.081405639648,0.095901489258,-0.021423339844,0.003036499023,-0.008865356445
-0.007141113281,-0.081375122070,0.089126586914,-0.018539428711,0.003585815430,-0.008178710938
-0.002243041992,-0.090911865234,0.094619750977,-0.018707275391,0.003021240234,-0.008438110352
-0.003326416016,-0.096176147461,0.099792480469,-0.020584106445,0.002700805664,-0.007431030273
-0.000244140625,-0.098876953125,0.107971191406,-0.022750854492,0.002655029297,-0.006439208984
0.000747680664,-0.098495483398,0.114257812500,-0.022583007813,0.002868652344,-0.005416870117
0.001449584961,-0.093383789063,0.121047973633,-0.021926879883,0.004974365234,-0.002838134766
0.001373291016,-0.091964721680,0.122711181641,-0.020996093750,0.006423950195,-0.001602172852
0.003463745117,-0.078872680664,0.111724853516,-0.018737792969,0.009368896484,0.001449584961
0.004211425781,-0.072723388672,0.108093261719,-0.019073486328,0.009872436523,0.002212524414
0.005386352539,-0.069320678711,0.115661621094,-0.020843505859,0.008499145508,0.001495361328
0.006515502930,-0.064102172852,0.116851806641,-0.019500732422,0.008392333984,0.001358032227
0.008483886719,-0.059005737305,0.117507934570,-0.015701293945,0.008789062500,-0.000488281250
0.007080078125,-0.061813354492,0.116806030273,-0.013168334961,0.008743286133,-0.001800537109
0.008056640625,-0.068939208984,0.113632202148,-0.011291503906,0.008239746094,-0.002899169922
0.007369995117,-0.071319580078,0.115417480469,-0.009918212891,0.007476806641,-0.002548217773
0.006973266602,-0.071990966797,0.125503540039,-0.007095336914,0.005767822266,-0.001373291016
0.006256103516,-0.069366455078,0.127273559570,-0.006134033203,0.005783081055,-0.000564575195
0.001693725586,-0.055419921875,0.117446899414,-0.004425048828,0.006942749023,0.001327514648
-0.001419067383,-0.052566528320,0.114624023438,-0.004837036133,0.006576538086,0.001388549805
0.000503540039,-0.049804687500,0.105072021484,-0.009902954102,0.006256103516,0.002410888672
0.000137329102,-0.039733886719,0.097030639648,-0.008712768555,0.005905151367,0.002243041992
-0.001220703125,-0.039688110352,0.092971801758,-0.011062622070,0.003005981445,0.002166748047
-0.010971069336,-0.040710449219,0.109817504883,-0.015258789063,0.000701904297,0.002548217773
-0.009597778320,-0.038208007813,0.119186401367,-0.015075683594,-0.000579833984,0.002838134766
-0.016189575195,-0.050231933594,0.145462036133,-0.014556884766,-0.003311157227,0.000381469727
-0.035766601563,-0.072509765625,0.152175903320,-0.008514404297,-0.005416870117,-0.001022338867

-0.085861206055,-0.118453979492,0.098205566406,0.033279418945,0.008148193359,-0.021789550781
-0.084121704102,-0.143127441406,0.109207153320,0.032241821289,0.006683349609,-0.023864746094
-0.092498779297,-0.209625244141,0.120513916016,0.030487060547,0.010070800781,-0.025741577148
-0.086151123047,-0.232894897461,0.121368408203,0.040878295898,0.011978149414,-0.020996093750
-0.081527709961,-0.225402832031,0.132232666016,0.035797119141,0.020828247070,-0.001876831055
-0.074081420898,-0.141647338867,0.118194580078,0.027343750000,0.025558471680,0.003845214844
-0.068969726563,-0.140853881836,0.093261718750,0.018203735352,0.029159545898,0.001464843750
-0.058227539063,-0.170639038086,0.085113525391,0.011077880859,0.029113769531,-0.001556396484
-0.055770874023,-0.175064086914,0.081573486328,0.010162353516,0.029418945313,0.001098632813
-0.046737670898,-0.163467407227,0.077484130859,0.014587402344,0.029373168945,0.006774902344
-0.040695190430,-0.169021606445,0.071426391602,0.016372680664,0.030303955078,0.007324218750
-0.027206420898,-0.213729858398,0.039398193359,0.018829345703,0.034622192383,0.005203247070
-0.015533447266,-0.231201171875,0.013305664063,0.021881103516,0.036453247070,0.007522583008
-0.009918212891,-0.231491088867,-0.007629394531,0.025741577148,0.036712646484,0.018646240234
-0.007171630859,-0.226181030273,-0.032287597656,0.030853271484,0.033615112305,0.023498535156
-0.003128051758,-0.214920043945,-0.029602050781,0.032730102539,0.030075073242,0.029129028320
0.010482788086,-0.171615600586,-0.025268554688,0.028945922852,0.029052734375,0.038497924805
0.017517089844,-0.160415649414,-0.039367675781,0.023941040039,0.032073974609,0.039535522461
0.041244506836,-0.123382568359,-0.094726562500,0.014648437500,0.039688110352,0.041427612305
0.043457031250,-0.105972290039,-0.114410400391,-0.001251220703,0.041000366211,0.042526245117
0.054168701172,-0.096755981445,-0.150878906250,-0.007705688477,0.030288696289,0.046020507813
0.068344116211,-0.042434692383,-0.143615722656,-0.008743286133,0.021163940430,0.047988891602
0.086441040039,-0.009735107422,-0.134033203125,-0.007995605469,0.012420654297,0.044128417969
0.090896606445,0.040954589844,-0.105194091797,-0.018951416016,0.001510620117,0.038604736328
0.088714599609,0.051330566406,-0.088485717773,-0.024765014648,-0.002304077148,0.031646728516
0.091827392578,0.038940429688,-0.083694458008,-0.029052734375,-0.006256103516,0.018310546875
0.091506958008,0.033218383789,-0.094207763672,-0.031250000000,-0.007232666016,0.014785766602
0.082641601563,0.033340454102,-0.101577758789,-0.031600952148,-0.014175415039,0.012237548828
0.073669433594,0.035644531250,-0.093597412109,-0.031448364258,-0.019638061523,0.010803222656
0.071517944336,0.023574829102,-0.087387084961,-0.032592773438,-0.028671264648,0.005203247070
0.056381225586,0.012588500977,-0.063552856445,-0.044998168945,-0.031723022461,0.001846313477
0.035995483398,-0.001342773438,-0.040878295898,-0.044540405273,-0.038696289063,-0.003677368164
0.049835205078,-0.030975341797,0.004211425781,-0.032287597656,-0.041015625000,-0.007568359375
0.012817382813,-0.047378540039,0.035537719727,-0.031158447266,-0.041473388672,-0.010589599609
-0.016876220703,-0.124938964844,0.031265258789,-0.025665283203,-0.038055419922,-0.013092041016
-0.026031494141,-0.137115478516,0.057846069336,-0.030242919922,-0.041915893555,-0.006652832031
-0.023101806641,-0.082000732422,0.121780395508,-0.045837402344,-0.045196533203,0.008255004883
-0.027069091797,-0.059677124023,0.124389648438,-0.053222656250,-0.041885375977,0.009506225586
-0.042160034180,-0.079406738281,0.109649658203,-0.071609497070,-0.037872314453,0.004821777344
-0.043579101563,-0.057952880859,0.146179199219,-0.091400146484,-0.039001464844,0.007492065430
-0.074630737305,-0.006835937500,0.152755737305,-0.066940307617,-0.039550781250,0.011383056641
-0.059020996094,0.054351806641,0.122497558594,-0.035980224609,-0.037963867188,0.008346557617
-0.097930908203,0.110977172852,0.131134033203,0.033691406250,-0.051437377930,-0.029922485352
-0.069534301758,-0.013092041016,0.206130981445,0.030151367188,-0.063919067383,-0.065536499023
-0.064086914063,-0.158645629883,0.316833496094,-0.056686401367,-0.058792114258,-0.100036621094
-0.145492553711,-0.380661010742,0.397705078125,-0.025360107422,-0.040344238281,-0.076736450195
-0.137710571289,-0.373062133789,0.368667602539,-0.018218994141,-0.014648437500,-0.034530639648
-0.103439331055,-0.126312255859,0.198760986328,0.001876831055,0.026885986328,0.045944213867
-0.064636230469,-0.008575439453,0.155929565430,0.012466430664,0.029846191406,0.058853149414
-0.007858276367,0.099853515625,0.032791137695,0.002838134766,0.045288085938,0.048156738281
-0.000915527344,0.087036132813,-0.013854980469,-0.005874633789,0.046401977539,0.033401489258
0.004821777344,-0.009323120117,0.009704589844,-0.036132812500,0.025161743164,0.003677368164
0.006179809570,-0.042556762695,0.050323486328,-0.037597656250,0.014114379883,-0.001708984375
0.012390136719,-0.040084838867,0.078277587891,-0.030853271484,0.008148193359,0.001907348633
0.015975952148,-0.013107299805,0.100799560547,-0.029541015625,0.009414672852,0.002716064453
0.009063720703,-0.009918212891,0.113037109375,-0.039489746094,0.011383056641,0.001022338867
0.008865356445,-0.028961181641,0.100769042969,-0.058197021484,0.016113281250,-0.002044677734
0.013427734375,-0.028610229492,0.104766845703,-0.065841674805,0.014572143555,-0.001052856445
0.014404296875,-0.022491455078,0.164443969727,-0.064163208008,0.001358032227,-0.001327514648
0.012466430664,-0.017410278320,0.198745727539,-0.056671142578,-0.004821777344,-0.001266479492
0.011215209961,0.005416870117,0.192367553711,-0.042068481445,-0.000808715820,0.001800537109
0.002197265625,0.021301269531,0.155715942383,-0.040451049805,0.005599975586,0.003143310547
-0.000610351563,0.033340454102,0.124588012695,-0.043014526367,0.009490966797,0.002578735352
0.006347656250,0.044952392578,0.094711303711,-0.046829223633,0.007858276367,0.000640869141
0.010238647461,0.042312622070,0.092483520508,-0.049301147461,0.005432128906,-0.002349853516
0.008392333984,0.024322509766,0.103591918945,-0.048233032227,0.001739501953,-0.008117675781
-0.000640869141,0.009796142578,0.111190795898,-0.029602050781,-0.001159667969,-0.008605957031
0.008789062500,0.013412475586,0.141082763672,0.015686035156,-0.012557983398,-0.001556396484
0.009460449219,0.004028320313,0.133361816406,0.051330566406,-0.017456054688,-0.000427246094
0.001647949219,-0.010314941406,0.096710205078,0.065155029297,-0.020401000977,0.000213623047
0.010391235352,-0.000305175781,0.116775512695,0.043472290039,-0.022521972656,0.001510620117
0.000595092773,0.007476806641,0.135589599609,0.032608032227,-0.023162841797,0.001266479492
0.022491455078,0.032714843750,0.256179809570,0.034439086914,-0.019897460938,0.000778198242
0.010910034180,0.004577636719,0.126800537109,0.048797607422,-0.003265380859,0.001403808594
-0.008621215820,0.017547607422,0.135314941406,0.010498046875,0.006072998047,-0.002273559570
-0.000976562500,-0.005493164063,0.117858886719,0.013656616211,0.007537841797,-0.006851196289
-0.004135131836,-0.063613891602,0.112091064453,0.003402709961,0.009643554688,-0.001831054688
-0.004516601563,-0.049865722656,0.154144287109,-0.008758544922,0.006408691406,0.007919311523
-0.001785278320,-0.027542114258,0.145141601563,0.006744384766,0.005828857422,0.017654418945
-0.025405883789,-0.001052856445,0.125350952148,0.041717529297,0.004394531250,0.015441894531
-0.012817382813,0.003570556641,0.116531372070,0.049011230469,0.002334594727,0.011856079102
-0.003494262695,-0.018234252930,0.111938476563,0.038558959961,0.002136230469,0.003356933594
0.007110595703,-0.033981323242,0.105316162109,0.027114868164,0.003067016602,0.001556396484
0.111862182617,0.033401489258,0.132461547852,0.010162353516,0.001892089844,0.005416870117
0.011810302734,-0.050384521484,0.089233398438,0.024673461914,-0.001007080078,0.000350952148
-0.003753662109,-0.063125610352,0.085494995117,-0.008117675781,0.007431030273,0.005096435547
0.007293701172,0.000885009766,0.148101806641,-0.028839111328,0.001602172852,0.010894775391
0.011260986328,0.002670288086,0.113098144531,-0.014617919922,0.004150390625,0.010055541992
-0.000961303711,-0.025421142578,0.134872436523,-0.028884887695,0.001968383789,0.004440307617
0.005920410156,-0.020309448242,0.125396728516,-0.027587890625,0.002151489258,0.005340576172
-0.015396118164,-0.006408691406,0.122879028320,-0.025314331055,0.002838134766,0.004974365234
0.004974365234,-0.003326416016,0.133743286133,-0.023834228516,0.002853393555,0.002761840820
0.029342651367,0.006591796875,0.134918212891,-0.013900756836,0.006698608398,0.002426147461
-0.003723144531,0.000289916992,0.128555297852,-0.009963989258,0.006240844727,-0.001022338867
0.009674072266,-0.002990722656,0.122375488281,-0.007095336914,0.005767822266,-0.002929687500
0.018463134766,-0.001724243164,0.125549316406,-0.003982543945,0.007095336914,-0.001983642578
0.010803222656,0.001739501953,0.126831054688,-0.001007080078,0.006759643555,-0.002731323242
0.005554199219,-0.002792358398,0.126388549805,0.005981445313,0.007080078125,-0.003601074219
0.003097534180,0.001266479492,0.126815795898,0.008682250977,0.006301879883,-0.003295898438
0.008071899414,-0.009445190430,0.125045776367,0.015792846680,0.004196166992,-0.003326416016
0.019256591797,-0.007629394531,0.123718261719,0.016098022461,0.001892089844,-0.002746582031
0.019027709961,-0.011322021484,0.114944458008,0.017730712891,-0.000061035156,-0.003128051758
0.015472412109,-0.025238037109,0.107681274414,0.017440795898,-0.002334594727,-0.004516601563
0.011123657227,-0.018005371094,0.123474121094,0.012054443359,-0.004379272461,-0.004302978516

-0.125701904297,-0.142898559570,0.114196777344,0.009796142578,-0.018096923828,-0.035690307617
-0.140579223633,-0.179672241211,0.134155273438,0.014099121094,-0.018127441406,-0.034378051758
-0.151672363281,-0.208450317383,0.165069580078,0.019973754883,-0.012466430664,-0.018249511719
-0.151657104492,-0.199798583984,0.162200927734,0.018722534180,-0.006622314453,-0.006729125977
-0.124679565430,-0.123168945313,0.106155395508,0.024627685547,0.004074096680,0.008773803711
-0.108535766602,-0.095764160156,0.077651977539,0.031616210938,0.004180908203,0.008087158203
-0.089569091797,-0.111846923828,0.069793701172,0.032775878906,-0.002578735352,-0.003295898438
-0.085464477539,-0.118377685547,0.056030273438,0.031524658203,-0.003417968750,-0.007141113281
-0.072174072266,-0.102813720703,0.023605346680,0.029800415039,-0.005905151367,-0.011505126953
-0.063140869141,-0.104263305664,0.014358520508,0.024703979492,-0.007919311523,-0.015228271484
-0.046386718750,-0.139633178711,0.051300048828,0.000091552734,-0.010513305664,-0.018417358398
-0.020568847656,-0.132766723633,0.043258666992,-0.002716064453,-0.006927490234,-0.014648437500
-0.007247924805,-0.126068115234,0.034301757813,0.001724243164,-0.004119873047,-0.008270263672
0.010528564453,-0.119781494141,0.032669067383,0.003799438477,-0.004806518555,-0.006362915039
0.015258789063,-0.120300292969,0.036102294922,0.005538940430,-0.006912231445,-0.001937866211
0.012786865234,-0.103576660156,0.033767700195,0.006958007813,-0.007888793945,-0.000244140625
0.012832641602,-0.107803344727,0.044921875000,0.007141113281,-0.009704589844,-0.000076293945
0.018920898438,-0.115539550781,0.094894409180,0.002471923828,-0.009155273438,0.002334594727
0.026275634766,-0.102951049805,0.090682983398,0.000564575195,-0.003738403320,0.005386352539
0.030838012695,-0.092391967773,0.070388793945,-0.006118774414,0.005004882813,0.007583618164
0.033569335938,-0.079925537109,0.067108154297,-0.007965087891,0.006088256836,0.007751464844
0.048492431641,-0.085220336914,0.114639282227,-0.013351440430,0.004608154297,0.004867553711
0.052841186523,-0.085281372070,0.118911743164,-0.015945434570,0.008850097656,0.005340576172
0.060195922852,-0.092193603516,0.058258056641,-0.013366699219,0.018844604492,0.009307861328
0.051422119141,-0.097793579102,0.043319702148,-0.012481689453,0.017486572266,0.012603759766
0.030059814453,-0.096389770508,0.041213989258,-0.018341064453,0.011428833008,0.020645141602
0.013458251953,-0.067672729492,0.049407958984,-0.022552490234,0.009689331055,0.024612426758
-0.007995605469,-0.030715942383,0.050491333008,-0.028335571289,0.007629394531,0.021484375000
-0.036087036133,-0.002456665039,0.055831909180,-0.027984619141,0.004394531250,0.012741088867
-0.070007324219,-0.015045166016,0.063217163086,-0.021987915039,0.001342773438,-0.011108398438
-0.097091674805,-0.059310913086,0.076568603516,0.003936767578,-0.004470825195,-0.022430419922
-0.103500366211,-0.102233886719,0.094635009766,0.006591796875,-0.005950927734,-0.031951904297
-0.138320922852,-0.196868896484,0.089431762695,0.012298583984,-0.003112792969,-0.036499023438
-0.142105102539,-0.227508544922,0.091735839844,0.010375976563,-0.002243041992,-0.030303955078
